"Event.Index","UTC.Timestamp","UTC.Date.and.Time","Local.Timestamp","Local.Timezone","Local.Date.and.Time","Experiment.ID","Experiment.Version","Tree.Node.Key","Repeat.Key","Schedule.ID","Participant.Private.ID","Participant.Starting.Group","Participant.Status","Participant.Completion.Code","Participant.External.Session.ID","Participant.Device.Type","Participant.Device","Participant.OS","Participant.Browser","Participant.Monitor.Size","Participant.Viewport.Size","Checkpoint","Room.ID","Room.Order","Task.Name","Task.Version","order.ot79","branch.g31k","branch.5gtn","Spreadsheet","Trial.Number","Display","Screen","Screen.ID","Screen.Counter","Response.Type","Response","Onset.Time","Clock.Time","Reaction.Time","Absolute.Onset.Time","Absolute.Clock.Time","Absolute.Reaction.Time","Correct","Response.Onset","Response.Duration","Proportion","Tag","Component.Name","Object.Name","Object.Number","Object.ID","Spreadsheet..display","Manipulation..Spreadsheet","Random_ID"
"1",1700677409409,"22/11/2023 18:23:29",1700677409409,0,"22/11/2023 18:23:29",151512,7,"task-w25u",NA,33140565,9813252,NA,"complete",NA,"655e43a8d5167a59c54d7e70","computer","Desktop or Laptop","Mac OS 10.15.7","Chrome 115.0.0.0","1366x768","1366x683",NA,NA,0,"Task Introduction and Instructions (re-introduce video and audio)",1,"CDBEAFJGIH","Passed AC2","","Spreadsheet1",NA,"","","",NA,"5","BEGIN",NA,NA,NA,NA,NA,NA,0,NA,NA,NA,NA,"","",NA,"","",NA,"SUPPRF61705"
"2",1700677413262,"22/11/2023 18:23:33",1700677413262,0,"22/11/2023 18:23:33",151512,7,"task-w25u",NA,33140565,9813252,NA,"complete",NA,"655e43a8d5167a59c54d7e70","computer","Desktop or Laptop","Mac OS 10.15.7","Chrome 115.0.0.0","1366x768","1366x683",NA,NA,0,"Task Introduction and Instructions (re-introduce video and audio)",1,"CDBEAFJGIH","Passed AC2","","Spreadsheet1",1,"Task Instructions","Screen 1","anr7sn",1,"continue","",3792.02500009537,3783.182,3792.02500009537,3792.02500009537,3783.182,3792.02500009537,1,3792.02500009537,0,0,NA,"Click To Continue","Continue Button",2,"object-1944","Task Instructions",NA,"SUPPRF61705"
"3",1700677421930,"22/11/2023 18:23:41",1700677421930,0,"22/11/2023 18:23:41",151512,7,"task-w25u",NA,33140565,9813252,NA,"complete",NA,"655e43a8d5167a59c54d7e70","computer","Desktop or Laptop","Mac OS 10.15.7","Chrome 115.0.0.0","1366x768","1366x683",NA,NA,0,"Task Introduction and Instructions (re-introduce video and audio)",1,"CDBEAFJGIH","Passed AC2","","Spreadsheet1",1,"Task Instructions","Screen 2","ce2tc8",2,"continue","",8677.04300014305,8666.728,8677.04300014305,8677.04300014305,8666.728,8677.04300014305,1,8677.04300014305,0,0,NA,"Click To Continue","Continue Button",2,"object-7","Task Instructions",NA,"SUPPRF61705"
"4",1700677426223,"22/11/2023 18:23:46",1700677426223,0,"22/11/2023 18:23:46",151512,7,"task-w25u",NA,33140565,9813252,NA,"complete",NA,"655e43a8d5167a59c54d7e70","computer","Desktop or Laptop","Mac OS 10.15.7","Chrome 115.0.0.0","1366x768","1366x683",NA,NA,0,"Task Introduction and Instructions (re-introduce video and audio)",1,"CDBEAFJGIH","Passed AC2","","Spreadsheet1",1,"Task Instructions","Screen 3","1qtc8v",3,"continue","",4302.91500004768,4300.2,4302.91500004768,4302.91500004768,4300.2,4302.91500004768,1,4302.91500004768,0,0,NA,"Click To Continue","Continue Button",2,"object-52","Task Instructions",NA,"SUPPRF61705"
"5",1700677429305,"22/11/2023 18:23:49",1700677429305,0,"22/11/2023 18:23:49",151512,7,"task-w25u",NA,33140565,9813252,NA,"complete",NA,"655e43a8d5167a59c54d7e70","computer","Desktop or Laptop","Mac OS 10.15.7","Chrome 115.0.0.0","1366x768","1366x683",NA,NA,0,"Task Introduction and Instructions (re-introduce video and audio)",1,"CDBEAFJGIH","Passed AC2","","Spreadsheet1",1,"Task Instructions","Screen 4","spepx9",4,"continue","",3083.21,3066.544,3083.21,3083.21,3066.544,3083.21,1,3083.21,0,0,NA,"Click To Continue","Continue Button",2,"object-9","Task Instructions",NA,"SUPPRF61705"
"6",1700677504245,"22/11/2023 18:25:04",1700677504245,0,"22/11/2023 18:25:04",151512,7,"task-w25u",NA,33140565,9813252,NA,"complete",NA,"655e43a8d5167a59c54d7e70","computer","Desktop or Laptop","Mac OS 10.15.7","Chrome 115.0.0.0","1366x768","1366x683",NA,NA,0,"Task Introduction and Instructions (re-introduce video and audio)",1,"CDBEAFJGIH","Passed AC2","","Spreadsheet1",1,"Task Instructions","Screen 5","8nvnao",5,"continue","",74954.471,74949.926,74954.471,74954.471,74949.926,74954.471,1,74954.471,0,0,NA,"Click To Continue","Continue Button",2,"object-44","Task Instructions",NA,"SUPPRF61705"
"7",1700677504257,"22/11/2023 18:25:04",1700677504257,0,"22/11/2023 18:25:04",151512,7,"task-w25u",NA,33140565,9813252,NA,"complete",NA,"655e43a8d5167a59c54d7e70","computer","Desktop or Laptop","Mac OS 10.15.7","Chrome 115.0.0.0","1366x768","1366x683",NA,NA,0,"Task Introduction and Instructions (re-introduce video and audio)",1,"CDBEAFJGIH","Passed AC2","","Spreadsheet1",NA,"","","",NA,"5","END",NA,NA,NA,NA,NA,NA,0,NA,NA,NA,NA,"","",NA,"","",NA,"SUPPRF61705"
"1",1700677900836,"22/11/2023 18:31:40",1700677900836,0,"22/11/2023 18:31:40",151512,7,"task-w25u",NA,33140832,9813364,NA,"complete",NA,"655e4392238c069fd97b2ec2","computer","Desktop or Laptop","Windows 10","Chrome 119.0.0.0","1536x864","1536x747",NA,NA,0,"Task Introduction and Instructions (re-introduce video and audio)",1,"EFDGCHBIAJ","Passed AC2","","Spreadsheet1",NA,"","","",NA,"5","BEGIN",NA,NA,NA,NA,NA,NA,0,NA,NA,NA,NA,"","",NA,"","",NA,"SUPPRF88145"
"2",1700677905239,"22/11/2023 18:31:45",1700677905239,0,"22/11/2023 18:31:45",151512,7,"task-w25u",NA,33140832,9813364,NA,"complete",NA,"655e4392238c069fd97b2ec2","computer","Desktop or Laptop","Windows 10","Chrome 119.0.0.0","1536x864","1536x747",NA,NA,0,"Task Introduction and Instructions (re-introduce video and audio)",1,"EFDGCHBIAJ","Passed AC2","","Spreadsheet1",1,"Task Instructions","Screen 1","anr7sn",1,"continue","",4205.38900001788,4193.218,4205.38900001788,4205.38900001788,4193.218,4205.38900001788,1,4205.38900001788,0,0,NA,"Click To Continue","Continue Button",2,"object-1944","Task Instructions",NA,"SUPPRF88145"
"3",1700677916071,"22/11/2023 18:31:56",1700677916071,0,"22/11/2023 18:31:56",151512,7,"task-w25u",NA,33140832,9813364,NA,"complete",NA,"655e4392238c069fd97b2ec2","computer","Desktop or Laptop","Windows 10","Chrome 119.0.0.0","1536x864","1536x747",NA,NA,0,"Task Introduction and Instructions (re-introduce video and audio)",1,"EFDGCHBIAJ","Passed AC2","","Spreadsheet1",1,"Task Instructions","Screen 2","ce2tc8",2,"continue","",10843.971,10832.642,10843.971,10843.971,10832.642,10843.971,1,10843.971,0,0,NA,"Click To Continue","Continue Button",2,"object-7","Task Instructions",NA,"SUPPRF88145"
"4",1700677921590,"22/11/2023 18:32:01",1700677921590,0,"22/11/2023 18:32:01",151512,7,"task-w25u",NA,33140832,9813364,NA,"complete",NA,"655e4392238c069fd97b2ec2","computer","Desktop or Laptop","Windows 10","Chrome 119.0.0.0","1536x864","1536x747",NA,NA,0,"Task Introduction and Instructions (re-introduce video and audio)",1,"EFDGCHBIAJ","Passed AC2","","Spreadsheet1",1,"Task Instructions","Screen 3","1qtc8v",3,"continue","",5530.42900002384,5524.476,5530.42900002384,5530.42900002384,5524.476,5530.42900002384,1,5530.42900002384,0,0,NA,"Click To Continue","Continue Button",2,"object-52","Task Instructions",NA,"SUPPRF88145"
"5",1700677924439,"22/11/2023 18:32:04",1700677924439,0,"22/11/2023 18:32:04",151512,7,"task-w25u",NA,33140832,9813364,NA,"complete",NA,"655e4392238c069fd97b2ec2","computer","Desktop or Laptop","Windows 10","Chrome 119.0.0.0","1536x864","1536x747",NA,NA,0,"Task Introduction and Instructions (re-introduce video and audio)",1,"EFDGCHBIAJ","Passed AC2","","Spreadsheet1",1,"Task Instructions","Screen 4","spepx9",4,"continue","",2854.45300002384,2845.439,2854.45300002384,2854.45300002384,2845.439,2854.45300002384,1,2854.45300002384,0,0,NA,"Click To Continue","Continue Button",2,"object-9","Task Instructions",NA,"SUPPRF88145"
"6",1700677927319,"22/11/2023 18:32:07",1700677927319,0,"22/11/2023 18:32:07",151512,7,"task-w25u",NA,33140832,9813364,NA,"complete",NA,"655e4392238c069fd97b2ec2","computer","Desktop or Laptop","Windows 10","Chrome 119.0.0.0","1536x864","1536x747",NA,NA,0,"Task Introduction and Instructions (re-introduce video and audio)",1,"EFDGCHBIAJ","Passed AC2","","Spreadsheet1",1,"Task Instructions","Screen 5","8nvnao",5,"continue","",2889.31400000596,2878.75,2889.31400000596,2889.31400000596,2878.75,2889.31400000596,1,2889.31400000596,0,0,NA,"Click To Continue","Continue Button",2,"object-44","Task Instructions",NA,"SUPPRF88145"
"7",1700677927324,"22/11/2023 18:32:07",1700677927324,0,"22/11/2023 18:32:07",151512,7,"task-w25u",NA,33140832,9813364,NA,"complete",NA,"655e4392238c069fd97b2ec2","computer","Desktop or Laptop","Windows 10","Chrome 119.0.0.0","1536x864","1536x747",NA,NA,0,"Task Introduction and Instructions (re-introduce video and audio)",1,"EFDGCHBIAJ","Passed AC2","","Spreadsheet1",NA,"","","",NA,"5","END",NA,NA,NA,NA,NA,NA,0,NA,NA,NA,NA,"","",NA,"","",NA,"SUPPRF88145"
"1",1700678148380,"22/11/2023 18:35:48",1700678148380,0,"22/11/2023 18:35:48",151512,7,"task-w25u",NA,33140932,9813318,NA,"complete",NA,"655e456d3a127b54be513454","computer","Desktop or Laptop","Mac OS 10.15.7","Chrome 119.0.0.0","1440x900","1440x783",NA,NA,0,"Task Introduction and Instructions (re-introduce video and audio)",1,"DECFBGAHJI","Passed AC2","","Spreadsheet1",NA,"","","",NA,"5","BEGIN",NA,NA,NA,NA,NA,NA,0,NA,NA,NA,NA,"","",NA,"","",NA,"SUPPRF47953"
"2",1700678152016,"22/11/2023 18:35:52",1700678152016,0,"22/11/2023 18:35:52",151512,7,"task-w25u",NA,33140932,9813318,NA,"complete",NA,"655e456d3a127b54be513454","computer","Desktop or Laptop","Mac OS 10.15.7","Chrome 119.0.0.0","1440x900","1440x783",NA,NA,0,"Task Introduction and Instructions (re-introduce video and audio)",1,"DECFBGAHJI","Passed AC2","","Spreadsheet1",1,"Task Instructions","Screen 1","anr7sn",1,"continue","",3574.384,3566.524,3574.384,3574.384,3566.524,3574.384,1,3574.384,0,0,NA,"Click To Continue","Continue Button",2,"object-1944","Task Instructions",NA,"SUPPRF47953"
"3",1700678156159,"22/11/2023 18:35:56",1700678156159,0,"22/11/2023 18:35:56",151512,7,"task-w25u",NA,33140932,9813318,NA,"complete",NA,"655e456d3a127b54be513454","computer","Desktop or Laptop","Mac OS 10.15.7","Chrome 119.0.0.0","1440x900","1440x783",NA,NA,0,"Task Introduction and Instructions (re-introduce video and audio)",1,"DECFBGAHJI","Passed AC2","","Spreadsheet1",1,"Task Instructions","Screen 2","ce2tc8",2,"continue","",4150.096,4133.43,4150.096,4150.096,4133.43,4150.096,1,4150.096,0,0,NA,"Click To Continue","Continue Button",2,"object-7","Task Instructions",NA,"SUPPRF47953"
"4",1700678158714,"22/11/2023 18:35:58",1700678158714,0,"22/11/2023 18:35:58",151512,7,"task-w25u",NA,33140932,9813318,NA,"complete",NA,"655e456d3a127b54be513454","computer","Desktop or Laptop","Mac OS 10.15.7","Chrome 119.0.0.0","1440x900","1440x783",NA,NA,0,"Task Introduction and Instructions (re-introduce video and audio)",1,"DECFBGAHJI","Passed AC2","","Spreadsheet1",1,"Task Instructions","Screen 3","1qtc8v",3,"continue","",2572.93,2566.564,2572.93,2572.93,2566.564,2572.93,1,2572.93,0,0,NA,"Click To Continue","Continue Button",2,"object-52","Task Instructions",NA,"SUPPRF47953"
"5",1700678161331,"22/11/2023 18:36:01",1700678161331,0,"22/11/2023 18:36:01",151512,7,"task-w25u",NA,33140932,9813318,NA,"complete",NA,"655e456d3a127b54be513454","computer","Desktop or Laptop","Mac OS 10.15.7","Chrome 119.0.0.0","1440x900","1440x783",NA,NA,0,"Task Introduction and Instructions (re-introduce video and audio)",1,"DECFBGAHJI","Passed AC2","","Spreadsheet1",1,"Task Instructions","Screen 4","spepx9",4,"continue","",2623.26600000596,2616.562,2623.26600000596,2623.26600000596,2616.562,2623.26600000596,1,2623.26600000596,0,0,NA,"Click To Continue","Continue Button",2,"object-9","Task Instructions",NA,"SUPPRF47953"
"6",1700678164442,"22/11/2023 18:36:04",1700678164442,0,"22/11/2023 18:36:04",151512,7,"task-w25u",NA,33140932,9813318,NA,"complete",NA,"655e456d3a127b54be513454","computer","Desktop or Laptop","Mac OS 10.15.7","Chrome 119.0.0.0","1440x900","1440x783",NA,NA,0,"Task Introduction and Instructions (re-introduce video and audio)",1,"DECFBGAHJI","Passed AC2","","Spreadsheet1",1,"Task Instructions","Screen 5","8nvnao",5,"continue","",3116.542,3099.876,3116.542,3116.542,3099.876,3116.542,1,3116.542,0,0,NA,"Click To Continue","Continue Button",2,"object-44","Task Instructions",NA,"SUPPRF47953"
"7",1700678164445,"22/11/2023 18:36:04",1700678164445,0,"22/11/2023 18:36:04",151512,7,"task-w25u",NA,33140932,9813318,NA,"complete",NA,"655e456d3a127b54be513454","computer","Desktop or Laptop","Mac OS 10.15.7","Chrome 119.0.0.0","1440x900","1440x783",NA,NA,0,"Task Introduction and Instructions (re-introduce video and audio)",1,"DECFBGAHJI","Passed AC2","","Spreadsheet1",NA,"","","",NA,"5","END",NA,NA,NA,NA,NA,NA,0,NA,NA,NA,NA,"","",NA,"","",NA,"SUPPRF47953"
"1",1700678432061,"22/11/2023 18:40:32",1700678432061,0,"22/11/2023 18:40:32",151512,7,"task-w25u",NA,33141065,9813418,NA,"complete",NA,"655e487524637b6a6078ed93","computer","Desktop or Laptop","Windows 10","Chrome 119.0.0.0","1280x720","1280x593",NA,NA,0,"Task Introduction and Instructions (re-introduce video and audio)",1,"FGEHDICJBA","Passed AC2","","Spreadsheet1",NA,"","","",NA,"5","BEGIN",NA,NA,NA,NA,NA,NA,0,NA,NA,NA,NA,"","",NA,"","",NA,"SUPPRF80130"
"2",1700678436036,"22/11/2023 18:40:36",1700678436036,0,"22/11/2023 18:40:36",151512,7,"task-w25u",NA,33141065,9813418,NA,"complete",NA,"655e487524637b6a6078ed93","computer","Desktop or Laptop","Windows 10","Chrome 119.0.0.0","1280x720","1280x593",NA,NA,0,"Task Introduction and Instructions (re-introduce video and audio)",1,"FGEHDICJBA","Passed AC2","","Spreadsheet1",1,"Task Instructions","Screen 1","anr7sn",1,"continue","",3873.29500000005,3863.416,3873.29500000005,3873.29500000005,3863.416,3873.29500000005,1,3873.29500000005,0,0,NA,"Click To Continue","Continue Button",2,"object-1944","Task Instructions",NA,"SUPPRF80130"
"3",1700678444971,"22/11/2023 18:40:44",1700678444971,0,"22/11/2023 18:40:44",151512,7,"task-w25u",NA,33141065,9813418,NA,"complete",NA,"655e487524637b6a6078ed93","computer","Desktop or Laptop","Windows 10","Chrome 119.0.0.0","1280x720","1280x593",NA,NA,0,"Task Introduction and Instructions (re-introduce video and audio)",1,"FGEHDICJBA","Passed AC2","","Spreadsheet1",1,"Task Instructions","Screen 2","ce2tc8",2,"continue","",8945.079,8942.62,8945.079,8945.079,8942.62,8945.079,1,8945.079,0,0,NA,"Click To Continue","Continue Button",2,"object-7","Task Instructions",NA,"SUPPRF80130"
"4",1700678449908,"22/11/2023 18:40:49",1700678449908,0,"22/11/2023 18:40:49",151512,7,"task-w25u",NA,33141065,9813418,NA,"complete",NA,"655e487524637b6a6078ed93","computer","Desktop or Laptop","Windows 10","Chrome 119.0.0.0","1280x720","1280x593",NA,NA,0,"Task Introduction and Instructions (re-introduce video and audio)",1,"FGEHDICJBA","Passed AC2","","Spreadsheet1",1,"Task Instructions","Screen 3","1qtc8v",3,"continue","",4939.959,4929.304,4939.959,4939.959,4929.304,4939.959,1,4939.959,0,0,NA,"Click To Continue","Continue Button",2,"object-52","Task Instructions",NA,"SUPPRF80130"
"5",1700678452878,"22/11/2023 18:40:52",1700678452878,0,"22/11/2023 18:40:52",151512,7,"task-w25u",NA,33141065,9813418,NA,"complete",NA,"655e487524637b6a6078ed93","computer","Desktop or Laptop","Windows 10","Chrome 119.0.0.0","1280x720","1280x593",NA,NA,0,"Task Introduction and Instructions (re-introduce video and audio)",1,"FGEHDICJBA","Passed AC2","","Spreadsheet1",1,"Task Instructions","Screen 4","spepx9",4,"continue","",2979.95500000005,2964.259,2979.95500000005,2979.95500000005,2964.259,2979.95500000005,1,2979.95500000005,0,0,NA,"Click To Continue","Continue Button",2,"object-9","Task Instructions",NA,"SUPPRF80130"
"6",1700678455551,"22/11/2023 18:40:55",1700678455551,0,"22/11/2023 18:40:55",151512,7,"task-w25u",NA,33141065,9813418,NA,"complete",NA,"655e487524637b6a6078ed93","computer","Desktop or Laptop","Windows 10","Chrome 119.0.0.0","1280x720","1280x593",NA,NA,0,"Task Introduction and Instructions (re-introduce video and audio)",1,"FGEHDICJBA","Passed AC2","","Spreadsheet1",1,"Task Instructions","Screen 5","8nvnao",5,"continue","",2688.69600000005,2681.261,2688.69600000005,2688.69600000005,2681.261,2688.69600000005,1,2688.69600000005,0,0,NA,"Click To Continue","Continue Button",2,"object-44","Task Instructions",NA,"SUPPRF80130"
"7",1700678455561,"22/11/2023 18:40:55",1700678455561,0,"22/11/2023 18:40:55",151512,7,"task-w25u",NA,33141065,9813418,NA,"complete",NA,"655e487524637b6a6078ed93","computer","Desktop or Laptop","Windows 10","Chrome 119.0.0.0","1280x720","1280x593",NA,NA,0,"Task Introduction and Instructions (re-introduce video and audio)",1,"FGEHDICJBA","Passed AC2","","Spreadsheet1",NA,"","","",NA,"5","END",NA,NA,NA,NA,NA,NA,0,NA,NA,NA,NA,"","",NA,"","",NA,"SUPPRF80130"
"1",1700680309985,"22/11/2023 19:11:49",1700658709985,-6,"22/11/2023 07:11:49",151512,7,"task-w25u",NA,33142070,9813699,NA,"complete",NA,"655e50c78ab0de64179c7dd9","computer","Desktop or Laptop","Windows 10","Chrome 119.0.0.0","1920x1080","1858x971",NA,NA,0,"Task Introduction and Instructions (re-introduce video and audio)",1,"GHFIEJDACB","Passed AC2","","Spreadsheet1",NA,"","","",NA,"5","BEGIN",NA,NA,NA,NA,NA,NA,0,NA,NA,NA,NA,"","",NA,"","",NA,"SUPPRF97792"
"2",1700680313571,"22/11/2023 19:11:53",1700658713571,-6,"22/11/2023 07:11:53",151512,7,"task-w25u",NA,33142070,9813699,NA,"complete",NA,"655e50c78ab0de64179c7dd9","computer","Desktop or Laptop","Windows 10","Chrome 119.0.0.0","1920x1080","1858x971",NA,NA,0,"Task Introduction and Instructions (re-introduce video and audio)",1,"GHFIEJDACB","Passed AC2","","Spreadsheet1",1,"Task Instructions","Screen 1","anr7sn",1,"continue","",3030.12000000223,3025.758,3030.12000000223,3030.12000000223,3025.758,3030.12000000223,1,3030.12000000223,0,0,NA,"Click To Continue","Continue Button",2,"object-1944","Task Instructions",NA,"SUPPRF97792"
"3",1700680321536,"22/11/2023 19:12:01",1700658721536,-6,"22/11/2023 07:12:01",151512,7,"task-w25u",NA,33142070,9813699,NA,"complete",NA,"655e50c78ab0de64179c7dd9","computer","Desktop or Laptop","Windows 10","Chrome 119.0.0.0","1920x1080","1858x971",NA,NA,0,"Task Introduction and Instructions (re-introduce video and audio)",1,"GHFIEJDACB","Passed AC2","","Spreadsheet1",1,"Task Instructions","Screen 2","ce2tc8",2,"continue","",7970.06200000149,7965.156,7970.06200000149,7970.06200000149,7965.156,7970.06200000149,1,7970.06200000149,0,0,NA,"Click To Continue","Continue Button",2,"object-7","Task Instructions",NA,"SUPPRF97792"
"4",1700680324269,"22/11/2023 19:12:04",1700658724269,-6,"22/11/2023 07:12:04",151512,7,"task-w25u",NA,33142070,9813699,NA,"complete",NA,"655e50c78ab0de64179c7dd9","computer","Desktop or Laptop","Windows 10","Chrome 119.0.0.0","1920x1080","1858x971",NA,NA,0,"Task Introduction and Instructions (re-introduce video and audio)",1,"GHFIEJDACB","Passed AC2","","Spreadsheet1",1,"Task Instructions","Screen 3","1qtc8v",3,"continue","",2738.10600000075,2736.841,2738.10600000075,2738.10600000075,2736.841,2738.10600000075,1,2738.10600000075,0,0,NA,"Click To Continue","Continue Button",2,"object-52","Task Instructions",NA,"SUPPRF97792"
"5",1700680326835,"22/11/2023 19:12:06",1700658726835,-6,"22/11/2023 07:12:06",151512,7,"task-w25u",NA,33142070,9813699,NA,"complete",NA,"655e50c78ab0de64179c7dd9","computer","Desktop or Laptop","Windows 10","Chrome 119.0.0.0","1920x1080","1858x971",NA,NA,0,"Task Introduction and Instructions (re-introduce video and audio)",1,"GHFIEJDACB","Passed AC2","","Spreadsheet1",1,"Task Instructions","Screen 4","spepx9",4,"continue","",2566.56500000149,2561.614,2566.56500000149,2566.56500000149,2561.614,2566.56500000149,1,2566.56500000149,0,0,NA,"Click To Continue","Continue Button",2,"object-9","Task Instructions",NA,"SUPPRF97792"
"6",1700680330865,"22/11/2023 19:12:10",1700658730865,-6,"22/11/2023 07:12:10",151512,7,"task-w25u",NA,33142070,9813699,NA,"complete",NA,"655e50c78ab0de64179c7dd9","computer","Desktop or Laptop","Windows 10","Chrome 119.0.0.0","1920x1080","1858x971",NA,NA,0,"Task Introduction and Instructions (re-introduce video and audio)",1,"GHFIEJDACB","Passed AC2","","Spreadsheet1",1,"Task Instructions","Screen 5","8nvnao",5,"continue","",4035.75100000223,4034.547,4035.75100000223,4035.75100000223,4034.547,4035.75100000223,1,4035.75100000223,0,0,NA,"Click To Continue","Continue Button",2,"object-44","Task Instructions",NA,"SUPPRF97792"
"7",1700680330868,"22/11/2023 19:12:10",1700658730868,-6,"22/11/2023 07:12:10",151512,7,"task-w25u",NA,33142070,9813699,NA,"complete",NA,"655e50c78ab0de64179c7dd9","computer","Desktop or Laptop","Windows 10","Chrome 119.0.0.0","1920x1080","1858x971",NA,NA,0,"Task Introduction and Instructions (re-introduce video and audio)",1,"GHFIEJDACB","Passed AC2","","Spreadsheet1",NA,"","","",NA,"5","END",NA,NA,NA,NA,NA,NA,0,NA,NA,NA,NA,"","",NA,"","",NA,"SUPPRF97792"
"1",1700681297852,"22/11/2023 19:28:17",1700681297852,0,"22/11/2023 19:28:17",151512,7,"task-w25u",NA,33142665,9813796,NA,"complete",NA,"655e5372280f4045afb4fd41","computer","Desktop or Laptop","Mac OS 10.15.7","Chrome 119.0.0.0","1440x900","1440x668",NA,NA,0,"Task Introduction and Instructions (re-introduce video and audio)",1,"HIGJFAEBDC","Passed AC2","","Spreadsheet1",NA,"","","",NA,"5","BEGIN",NA,NA,NA,NA,NA,NA,0,NA,NA,NA,NA,"","",NA,"","",NA,"SUPPRF09619"
"2",1700681302683,"22/11/2023 19:28:22",1700681302683,0,"22/11/2023 19:28:22",151512,7,"task-w25u",NA,33142665,9813796,NA,"complete",NA,"655e5372280f4045afb4fd41","computer","Desktop or Laptop","Mac OS 10.15.7","Chrome 119.0.0.0","1440x900","1440x668",NA,NA,0,"Task Introduction and Instructions (re-introduce video and audio)",1,"HIGJFAEBDC","Passed AC2","","Spreadsheet1",1,"Task Instructions","Screen 1","anr7sn",1,"continue","",4720.19899995232,4716.761,4720.19899995232,4720.19899995232,4716.761,4720.19899995232,1,4720.19899995232,0,0,NA,"Click To Continue","Continue Button",2,"object-1944","Task Instructions",NA,"SUPPRF09619"
"3",1700681322100,"22/11/2023 19:28:42",1700681322100,0,"22/11/2023 19:28:42",151512,7,"task-w25u",NA,33142665,9813796,NA,"complete",NA,"655e5372280f4045afb4fd41","computer","Desktop or Laptop","Mac OS 10.15.7","Chrome 119.0.0.0","1440x900","1440x668",NA,NA,0,"Task Introduction and Instructions (re-introduce video and audio)",1,"HIGJFAEBDC","Passed AC2","","Spreadsheet1",1,"Task Instructions","Screen 2","ce2tc8",2,"continue","",19418.007,19401.34,19418.007,19418.007,19401.34,19418.007,1,19418.007,0,0,NA,"Click To Continue","Continue Button",2,"object-7","Task Instructions",NA,"SUPPRF09619"
"4",1700681325184,"22/11/2023 19:28:45",1700681325184,0,"22/11/2023 19:28:45",151512,7,"task-w25u",NA,33142665,9813796,NA,"complete",NA,"655e5372280f4045afb4fd41","computer","Desktop or Laptop","Mac OS 10.15.7","Chrome 119.0.0.0","1440x900","1440x668",NA,NA,0,"Task Introduction and Instructions (re-introduce video and audio)",1,"HIGJFAEBDC","Passed AC2","","Spreadsheet1",1,"Task Instructions","Screen 3","1qtc8v",3,"continue","",3102.89799996424,3100.062,3102.89799996424,3102.89799996424,3100.062,3102.89799996424,1,3102.89799996424,0,0,NA,"Click To Continue","Continue Button",2,"object-52","Task Instructions",NA,"SUPPRF09619"
"5",1700681330268,"22/11/2023 19:28:50",1700681330268,0,"22/11/2023 19:28:50",151512,7,"task-w25u",NA,33142665,9813796,NA,"complete",NA,"655e5372280f4045afb4fd41","computer","Desktop or Laptop","Mac OS 10.15.7","Chrome 119.0.0.0","1440x900","1440x668",NA,NA,0,"Task Introduction and Instructions (re-introduce video and audio)",1,"HIGJFAEBDC","Passed AC2","","Spreadsheet1",1,"Task Instructions","Screen 4","spepx9",4,"continue","",5083.911,5067.244,5083.911,5083.911,5067.244,5083.911,1,5083.911,0,0,NA,"Click To Continue","Continue Button",2,"object-9","Task Instructions",NA,"SUPPRF09619"
"6",1700681333367,"22/11/2023 19:28:53",1700681333367,0,"22/11/2023 19:28:53",151512,7,"task-w25u",NA,33142665,9813796,NA,"complete",NA,"655e5372280f4045afb4fd41","computer","Desktop or Laptop","Mac OS 10.15.7","Chrome 119.0.0.0","1440x900","1440x668",NA,NA,0,"Task Introduction and Instructions (re-introduce video and audio)",1,"HIGJFAEBDC","Passed AC2","","Spreadsheet1",1,"Task Instructions","Screen 5","8nvnao",5,"continue","",3118.39199997616,3116.729,3118.39199997616,3118.39199997616,3116.729,3118.39199997616,1,3118.39199997616,0,0,NA,"Click To Continue","Continue Button",2,"object-44","Task Instructions",NA,"SUPPRF09619"
"7",1700681333373,"22/11/2023 19:28:53",1700681333373,0,"22/11/2023 19:28:53",151512,7,"task-w25u",NA,33142665,9813796,NA,"complete",NA,"655e5372280f4045afb4fd41","computer","Desktop or Laptop","Mac OS 10.15.7","Chrome 119.0.0.0","1440x900","1440x668",NA,NA,0,"Task Introduction and Instructions (re-introduce video and audio)",1,"HIGJFAEBDC","Passed AC2","","Spreadsheet1",NA,"","","",NA,"5","END",NA,NA,NA,NA,NA,NA,0,NA,NA,NA,NA,"","",NA,"","",NA,"SUPPRF09619"
"1",1700682931418,"22/11/2023 19:55:31",1700682931418,0,"22/11/2023 19:55:31",151512,7,"task-w25u",NA,33143392,9813937,NA,"complete",NA,"655e57bac825fe6ca37d88a1","computer","Desktop or Laptop","Windows 10","Chrome 117.0.0.0","1280x720","1280x563",NA,NA,0,"Task Introduction and Instructions (re-introduce video and audio)",1,"IJHAGBFCED","Passed AC2","","Spreadsheet1",NA,"","","",NA,"5","BEGIN",NA,NA,NA,NA,NA,NA,0,NA,NA,NA,NA,"","",NA,"","",NA,"SUPPRF96614"
"2",1700682936906,"22/11/2023 19:55:36",1700682936906,0,"22/11/2023 19:55:36",151512,7,"task-w25u",NA,33143392,9813937,NA,"complete",NA,"655e57bac825fe6ca37d88a1","computer","Desktop or Laptop","Windows 10","Chrome 117.0.0.0","1280x720","1280x563",NA,NA,0,"Task Introduction and Instructions (re-introduce video and audio)",1,"IJHAGBFCED","Passed AC2","","Spreadsheet1",1,"Task Instructions","Screen 1","anr7sn",1,"continue","",5403.79399923706,5394.278,5403.79399923706,5403.79399923706,5394.278,5403.79399923706,1,5403.79399923706,0,0,NA,"Click To Continue","Continue Button",2,"object-1944","Task Instructions",NA,"SUPPRF96614"
"3",1700683029761,"22/11/2023 19:57:09",1700683029761,0,"22/11/2023 19:57:09",151512,7,"task-w25u",NA,33143392,9813937,NA,"complete",NA,"655e57bac825fe6ca37d88a1","computer","Desktop or Laptop","Windows 10","Chrome 117.0.0.0","1280x720","1280x563",NA,NA,0,"Task Introduction and Instructions (re-introduce video and audio)",1,"IJHAGBFCED","Passed AC2","","Spreadsheet1",1,"Task Instructions","Screen 2","ce2tc8",2,"continue","",92864.132,92847.559,92864.132,92864.132,92847.559,92864.132,1,92864.132,0,0,NA,"Click To Continue","Continue Button",2,"object-7","Task Instructions",NA,"SUPPRF96614"
"4",1700683033654,"22/11/2023 19:57:13",1700683033654,0,"22/11/2023 19:57:13",151512,7,"task-w25u",NA,33143392,9813937,NA,"complete",NA,"655e57bac825fe6ca37d88a1","computer","Desktop or Laptop","Windows 10","Chrome 117.0.0.0","1280x720","1280x563",NA,NA,0,"Task Introduction and Instructions (re-introduce video and audio)",1,"IJHAGBFCED","Passed AC2","","Spreadsheet1",1,"Task Instructions","Screen 3","1qtc8v",3,"continue","",3911.15700000001,3895.962,3911.15700000001,3911.15700000001,3895.962,3911.15700000001,1,3911.15700000001,0,0,NA,"Click To Continue","Continue Button",2,"object-52","Task Instructions",NA,"SUPPRF96614"
"5",1700683041091,"22/11/2023 19:57:21",1700683041091,0,"22/11/2023 19:57:21",151512,7,"task-w25u",NA,33143392,9813937,NA,"complete",NA,"655e57bac825fe6ca37d88a1","computer","Desktop or Laptop","Windows 10","Chrome 117.0.0.0","1280x720","1280x563",NA,NA,0,"Task Introduction and Instructions (re-introduce video and audio)",1,"IJHAGBFCED","Passed AC2","","Spreadsheet1",1,"Task Instructions","Screen 4","spepx9",4,"continue","",7452.09499961854,7441.47,7452.09499961854,7452.09499961854,7441.47,7452.09499961854,1,7452.09499961854,0,0,NA,"Click To Continue","Continue Button",2,"object-9","Task Instructions",NA,"SUPPRF96614"
"6",1700683044333,"22/11/2023 19:57:24",1700683044333,0,"22/11/2023 19:57:24",151512,7,"task-w25u",NA,33143392,9813937,NA,"complete",NA,"655e57bac825fe6ca37d88a1","computer","Desktop or Laptop","Windows 10","Chrome 117.0.0.0","1280x720","1280x563",NA,NA,0,"Task Introduction and Instructions (re-introduce video and audio)",1,"IJHAGBFCED","Passed AC2","","Spreadsheet1",1,"Task Instructions","Screen 5","8nvnao",5,"continue","",3252.42500076295,3246.371,3252.42500076295,3252.42500076295,3246.371,3252.42500076295,1,3252.42500076295,0,0,NA,"Click To Continue","Continue Button",2,"object-44","Task Instructions",NA,"SUPPRF96614"
"7",1700683044335,"22/11/2023 19:57:24",1700683044335,0,"22/11/2023 19:57:24",151512,7,"task-w25u",NA,33143392,9813937,NA,"complete",NA,"655e57bac825fe6ca37d88a1","computer","Desktop or Laptop","Windows 10","Chrome 117.0.0.0","1280x720","1280x563",NA,NA,0,"Task Introduction and Instructions (re-introduce video and audio)",1,"IJHAGBFCED","Passed AC2","","Spreadsheet1",NA,"","","",NA,"5","END",NA,NA,NA,NA,NA,NA,0,NA,NA,NA,NA,"","",NA,"","",NA,"SUPPRF96614"
"1",1700688746328,"22/11/2023 21:32:26",1700688746328,0,"22/11/2023 21:32:26",151512,7,"task-w25u",NA,33146192,9814645,NA,"complete",NA,"655e6dc1e9ada5668842e2b1","computer","Desktop or Laptop","Windows 10","Chrome 119.0.0.0","1536x864","1536x739",NA,NA,0,"Task Introduction and Instructions (re-introduce video and audio)",1,"ABJCIDHEGF","Failed AC2","Passed AC1","Spreadsheet1",NA,"","","",NA,"5","BEGIN",NA,NA,NA,NA,NA,NA,0,NA,NA,NA,NA,"","",NA,"","",NA,"SUPPRF47214"
"2",1700688749694,"22/11/2023 21:32:29",1700688749694,0,"22/11/2023 21:32:29",151512,7,"task-w25u",NA,33146192,9814645,NA,"complete",NA,"655e6dc1e9ada5668842e2b1","computer","Desktop or Laptop","Windows 10","Chrome 119.0.0.0","1536x864","1536x739",NA,NA,0,"Task Introduction and Instructions (re-introduce video and audio)",1,"ABJCIDHEGF","Failed AC2","Passed AC1","Spreadsheet1",1,"Task Instructions","Screen 1","anr7sn",1,"continue","",3253.44300152588,3248.359,3253.44300152588,3253.44300152588,3248.359,3253.44300152588,1,3253.44300152588,0,0,NA,"Click To Continue","Continue Button",2,"object-1944","Task Instructions",NA,"SUPPRF47214"
"3",1700688784618,"22/11/2023 21:33:04",1700688784618,0,"22/11/2023 21:33:04",151512,7,"task-w25u",NA,33146192,9814645,NA,"complete",NA,"655e6dc1e9ada5668842e2b1","computer","Desktop or Laptop","Windows 10","Chrome 119.0.0.0","1536x864","1536x739",NA,NA,0,"Task Introduction and Instructions (re-introduce video and audio)",1,"ABJCIDHEGF","Failed AC2","Passed AC1","Spreadsheet1",1,"Task Instructions","Screen 2","ce2tc8",2,"continue","",34929.184,34914.124,34929.184,34929.184,34914.124,34929.184,1,34929.184,0,0,NA,"Click To Continue","Continue Button",2,"object-7","Task Instructions",NA,"SUPPRF47214"
"4",1700688787197,"22/11/2023 21:33:07",1700688787197,0,"22/11/2023 21:33:07",151512,7,"task-w25u",NA,33146192,9814645,NA,"complete",NA,"655e6dc1e9ada5668842e2b1","computer","Desktop or Laptop","Windows 10","Chrome 119.0.0.0","1536x864","1536x739",NA,NA,0,"Task Introduction and Instructions (re-introduce video and audio)",1,"ABJCIDHEGF","Failed AC2","Passed AC1","Spreadsheet1",1,"Task Instructions","Screen 3","1qtc8v",3,"continue","",2594.25999694824,2582.03,2594.25999694824,2594.25999694824,2582.03,2594.25999694824,1,2594.25999694824,0,0,NA,"Click To Continue","Continue Button",2,"object-52","Task Instructions",NA,"SUPPRF47214"
"5",1700688789692,"22/11/2023 21:33:09",1700688789692,0,"22/11/2023 21:33:09",151512,7,"task-w25u",NA,33146192,9814645,NA,"complete",NA,"655e6dc1e9ada5668842e2b1","computer","Desktop or Laptop","Windows 10","Chrome 119.0.0.0","1536x864","1536x739",NA,NA,0,"Task Introduction and Instructions (re-introduce video and audio)",1,"ABJCIDHEGF","Failed AC2","Passed AC1","Spreadsheet1",1,"Task Instructions","Screen 4","spepx9",4,"continue","",2506.93000152588,2498.209,2506.93000152588,2506.93000152588,2498.209,2506.93000152588,1,2506.93000152588,0,0,NA,"Click To Continue","Continue Button",2,"object-9","Task Instructions",NA,"SUPPRF47214"
"6",1700688792194,"22/11/2023 21:33:12",1700688792194,0,"22/11/2023 21:33:12",151512,7,"task-w25u",NA,33146192,9814645,NA,"complete",NA,"655e6dc1e9ada5668842e2b1","computer","Desktop or Laptop","Windows 10","Chrome 119.0.0.0","1536x864","1536x739",NA,NA,0,"Task Introduction and Instructions (re-introduce video and audio)",1,"ABJCIDHEGF","Failed AC2","Passed AC1","Spreadsheet1",1,"Task Instructions","Screen 5","8nvnao",5,"continue","",2510.42099847412,2498.821,2510.42099847412,2510.42099847412,2498.821,2510.42099847412,1,2510.42099847412,0,0,NA,"Click To Continue","Continue Button",2,"object-44","Task Instructions",NA,"SUPPRF47214"
"7",1700688792197,"22/11/2023 21:33:12",1700688792197,0,"22/11/2023 21:33:12",151512,7,"task-w25u",NA,33146192,9814645,NA,"complete",NA,"655e6dc1e9ada5668842e2b1","computer","Desktop or Laptop","Windows 10","Chrome 119.0.0.0","1536x864","1536x739",NA,NA,0,"Task Introduction and Instructions (re-introduce video and audio)",1,"ABJCIDHEGF","Failed AC2","Passed AC1","Spreadsheet1",NA,"","","",NA,"5","END",NA,NA,NA,NA,NA,NA,0,NA,NA,NA,NA,"","",NA,"","",NA,"SUPPRF47214"
"1",1700689109366,"22/11/2023 21:38:29",1700689109366,0,"22/11/2023 21:38:29",151512,7,"task-w25u",NA,33146351,9814708,NA,"complete",NA,"655e724aa578f8d8519f2ae2","computer","Desktop or Laptop","Mac OS 10.15.7","Chrome 116.0.0.0","1440x900","1440x731",NA,NA,0,"Task Introduction and Instructions (re-introduce video and audio)",1,"BCADJEIFHG","Passed AC2","","Spreadsheet1",NA,"","","",NA,"5","BEGIN",NA,NA,NA,NA,NA,NA,0,NA,NA,NA,NA,"","",NA,"","",NA,"SUPPRF23161"
"2",1700689112495,"22/11/2023 21:38:32",1700689112495,0,"22/11/2023 21:38:32",151512,7,"task-w25u",NA,33146351,9814708,NA,"complete",NA,"655e724aa578f8d8519f2ae2","computer","Desktop or Laptop","Mac OS 10.15.7","Chrome 116.0.0.0","1440x900","1440x731",NA,NA,0,"Task Introduction and Instructions (re-introduce video and audio)",1,"BCADJEIFHG","Passed AC2","","Spreadsheet1",1,"Task Instructions","Screen 1","anr7sn",1,"continue","",3037.73100000019,3008.039,3037.73100000019,3037.73100000019,3008.039,3037.73100000019,1,3037.73100000019,0,0,NA,"Click To Continue","Continue Button",2,"object-1944","Task Instructions",NA,"SUPPRF23161"
"3",1700689119637,"22/11/2023 21:38:39",1700689119637,0,"22/11/2023 21:38:39",151512,7,"task-w25u",NA,33146351,9814708,NA,"complete",NA,"655e724aa578f8d8519f2ae2","computer","Desktop or Laptop","Mac OS 10.15.7","Chrome 116.0.0.0","1440x900","1440x731",NA,NA,0,"Task Introduction and Instructions (re-introduce video and audio)",1,"BCADJEIFHG","Passed AC2","","Spreadsheet1",1,"Task Instructions","Screen 2","ce2tc8",2,"continue","",7171.69200000019,7152.308,7171.69200000019,7171.69200000019,7152.308,7171.69200000019,1,7171.69200000019,0,0,NA,"Click To Continue","Continue Button",2,"object-7","Task Instructions",NA,"SUPPRF23161"
"4",1700689123492,"22/11/2023 21:38:43",1700689123492,0,"22/11/2023 21:38:43",151512,7,"task-w25u",NA,33146351,9814708,NA,"complete",NA,"655e724aa578f8d8519f2ae2","computer","Desktop or Laptop","Mac OS 10.15.7","Chrome 116.0.0.0","1440x900","1440x731",NA,NA,0,"Task Introduction and Instructions (re-introduce video and audio)",1,"BCADJEIFHG","Passed AC2","","Spreadsheet1",1,"Task Instructions","Screen 3","1qtc8v",3,"continue","",3874.48400000074,3843.817,3874.48400000074,3874.48400000074,3843.817,3874.48400000074,1,3874.48400000074,0,0,NA,"Click To Continue","Continue Button",2,"object-52","Task Instructions",NA,"SUPPRF23161"
"5",1700689126253,"22/11/2023 21:38:46",1700689126253,0,"22/11/2023 21:38:46",151512,7,"task-w25u",NA,33146351,9814708,NA,"complete",NA,"655e724aa578f8d8519f2ae2","computer","Desktop or Laptop","Mac OS 10.15.7","Chrome 116.0.0.0","1440x900","1440x731",NA,NA,0,"Task Introduction and Instructions (re-introduce video and audio)",1,"BCADJEIFHG","Passed AC2","","Spreadsheet1",1,"Task Instructions","Screen 4","spepx9",4,"continue","",2791.16700000075,2774.026,2791.16700000075,2791.16700000075,2774.026,2791.16700000075,1,2791.16700000075,0,0,NA,"Click To Continue","Continue Button",2,"object-9","Task Instructions",NA,"SUPPRF23161"
"6",1700689129232,"22/11/2023 21:38:49",1700689129232,0,"22/11/2023 21:38:49",151512,7,"task-w25u",NA,33146351,9814708,NA,"complete",NA,"655e724aa578f8d8519f2ae2","computer","Desktop or Laptop","Mac OS 10.15.7","Chrome 116.0.0.0","1440x900","1440x731",NA,NA,0,"Task Introduction and Instructions (re-introduce video and audio)",1,"BCADJEIFHG","Passed AC2","","Spreadsheet1",1,"Task Instructions","Screen 5","8nvnao",5,"continue","",2996.14100000075,2974.558,2996.14100000075,2996.14100000075,2974.558,2996.14100000075,1,2996.14100000075,0,0,NA,"Click To Continue","Continue Button",2,"object-44","Task Instructions",NA,"SUPPRF23161"
"7",1700689129235,"22/11/2023 21:38:49",1700689129235,0,"22/11/2023 21:38:49",151512,7,"task-w25u",NA,33146351,9814708,NA,"complete",NA,"655e724aa578f8d8519f2ae2","computer","Desktop or Laptop","Mac OS 10.15.7","Chrome 116.0.0.0","1440x900","1440x731",NA,NA,0,"Task Introduction and Instructions (re-introduce video and audio)",1,"BCADJEIFHG","Passed AC2","","Spreadsheet1",NA,"","","",NA,"5","END",NA,NA,NA,NA,NA,NA,0,NA,NA,NA,NA,"","",NA,"","",NA,"SUPPRF23161"
"1",1700696457032,"22/11/2023 23:40:57",1700696457032,0,"22/11/2023 23:40:57",151512,7,"task-w25u",NA,33148123,9815260,NA,"complete",NA,"655e8f1867c92d8505b1dd65","computer","Desktop or Laptop","Windows 10","Chrome 119.0.0.0","1536x864","1536x739",NA,NA,0,"Task Introduction and Instructions (re-introduce video and audio)",1,"CDBEAFJGIH","Passed AC2","","Spreadsheet1",NA,"","","",NA,"5","BEGIN",NA,NA,NA,NA,NA,NA,0,NA,NA,NA,NA,"","",NA,"","",NA,"SUPPRF13297"
"2",1700696460990,"22/11/2023 23:41:00",1700696460990,0,"22/11/2023 23:41:00",151512,7,"task-w25u",NA,33148123,9815260,NA,"complete",NA,"655e8f1867c92d8505b1dd65","computer","Desktop or Laptop","Windows 10","Chrome 119.0.0.0","1536x864","1536x739",NA,NA,0,"Task Introduction and Instructions (re-introduce video and audio)",1,"CDBEAFJGIH","Passed AC2","","Spreadsheet1",1,"Task Instructions","Screen 1","anr7sn",1,"continue","",3924.4579997139,3920.647,3924.4579997139,3924.4579997139,3920.647,3924.4579997139,1,3924.4579997139,0,0,NA,"Click To Continue","Continue Button",2,"object-1944","Task Instructions",NA,"SUPPRF13297"
"3",1700696466786,"22/11/2023 23:41:06",1700696466786,0,"22/11/2023 23:41:06",151512,7,"task-w25u",NA,33148123,9815260,NA,"complete",NA,"655e8f1867c92d8505b1dd65","computer","Desktop or Laptop","Windows 10","Chrome 119.0.0.0","1536x864","1536x739",NA,NA,0,"Task Introduction and Instructions (re-introduce video and audio)",1,"CDBEAFJGIH","Passed AC2","","Spreadsheet1",1,"Task Instructions","Screen 2","ce2tc8",2,"continue","",5800.511,5798.681,5800.511,5800.511,5798.681,5800.511,1,5800.511,0,0,NA,"Click To Continue","Continue Button",2,"object-7","Task Instructions",NA,"SUPPRF13297"
"4",1700696469404,"22/11/2023 23:41:09",1700696469404,0,"22/11/2023 23:41:09",151512,7,"task-w25u",NA,33148123,9815260,NA,"complete",NA,"655e8f1867c92d8505b1dd65","computer","Desktop or Laptop","Windows 10","Chrome 119.0.0.0","1536x864","1536x739",NA,NA,0,"Task Introduction and Instructions (re-introduce video and audio)",1,"CDBEAFJGIH","Passed AC2","","Spreadsheet1",1,"Task Instructions","Screen 3","1qtc8v",3,"continue","",2619.33,2617.689,2619.33,2619.33,2617.689,2619.33,1,2619.33,0,0,NA,"Click To Continue","Continue Button",2,"object-52","Task Instructions",NA,"SUPPRF13297"
"5",1700696472027,"22/11/2023 23:41:12",1700696472027,0,"22/11/2023 23:41:12",151512,7,"task-w25u",NA,33148123,9815260,NA,"complete",NA,"655e8f1867c92d8505b1dd65","computer","Desktop or Laptop","Windows 10","Chrome 119.0.0.0","1536x864","1536x739",NA,NA,0,"Task Introduction and Instructions (re-introduce video and audio)",1,"CDBEAFJGIH","Passed AC2","","Spreadsheet1",1,"Task Instructions","Screen 4","spepx9",4,"continue","",2625.641,2623.671,2625.641,2625.641,2623.671,2625.641,1,2625.641,0,0,NA,"Click To Continue","Continue Button",2,"object-9","Task Instructions",NA,"SUPPRF13297"
"6",1700696476103,"22/11/2023 23:41:16",1700696476103,0,"22/11/2023 23:41:16",151512,7,"task-w25u",NA,33148123,9815260,NA,"complete",NA,"655e8f1867c92d8505b1dd65","computer","Desktop or Laptop","Windows 10","Chrome 119.0.0.0","1536x864","1536x739",NA,NA,0,"Task Introduction and Instructions (re-introduce video and audio)",1,"CDBEAFJGIH","Passed AC2","","Spreadsheet1",1,"Task Instructions","Screen 5","8nvnao",5,"continue","",4077.66999980926,4072.067,4077.66999980926,4077.66999980926,4072.067,4077.66999980926,1,4077.66999980926,0,0,NA,"Click To Continue","Continue Button",2,"object-44","Task Instructions",NA,"SUPPRF13297"
"7",1700696476106,"22/11/2023 23:41:16",1700696476106,0,"22/11/2023 23:41:16",151512,7,"task-w25u",NA,33148123,9815260,NA,"complete",NA,"655e8f1867c92d8505b1dd65","computer","Desktop or Laptop","Windows 10","Chrome 119.0.0.0","1536x864","1536x739",NA,NA,0,"Task Introduction and Instructions (re-introduce video and audio)",1,"CDBEAFJGIH","Passed AC2","","Spreadsheet1",NA,"","","",NA,"5","END",NA,NA,NA,NA,NA,NA,0,NA,NA,NA,NA,"","",NA,"","",NA,"SUPPRF13297"
"1",1700701227058,"23/11/2023 01:00:27",1700704827058,1,"23/11/2023 03:00:27",151512,7,"task-w25u",NA,33148835,9815398,NA,"complete",NA,"655e6db4d0a6130a864d8405","computer","Desktop or Laptop","Windows 10","Chrome 119.0.0.0","1366x768","1366x651",NA,NA,0,"Task Introduction and Instructions (re-introduce video and audio)",1,"DECFBGAHJI","Passed AC2","","Spreadsheet1",NA,"","","",NA,"5","BEGIN",NA,NA,NA,NA,NA,NA,0,NA,NA,NA,NA,"","",NA,"","",NA,"SUPPRF71413"
"2",1700701234391,"23/11/2023 01:00:34",1700704834391,1,"23/11/2023 03:00:34",151512,7,"task-w25u",NA,33148835,9815398,NA,"complete",NA,"655e6db4d0a6130a864d8405","computer","Desktop or Laptop","Windows 10","Chrome 119.0.0.0","1366x768","1366x651",NA,NA,0,"Task Introduction and Instructions (re-introduce video and audio)",1,"DECFBGAHJI","Passed AC2","","Spreadsheet1",1,"Task Instructions","Screen 1","anr7sn",1,"continue","",5665.997,5649.28,5665.997,5665.997,5649.28,5665.997,1,5665.997,0,0,NA,"Click To Continue","Continue Button",2,"object-1944","Task Instructions",NA,"SUPPRF71413"
"3",1700701250389,"23/11/2023 01:00:50",1700704850389,1,"23/11/2023 03:00:50",151512,7,"task-w25u",NA,33148835,9815398,NA,"complete",NA,"655e6db4d0a6130a864d8405","computer","Desktop or Laptop","Windows 10","Chrome 119.0.0.0","1366x768","1366x651",NA,NA,0,"Task Introduction and Instructions (re-introduce video and audio)",1,"DECFBGAHJI","Passed AC2","","Spreadsheet1",1,"Task Instructions","Screen 2","ce2tc8",2,"continue","",16019.4980000015,16014.156,16019.4980000015,16019.4980000015,16014.156,16019.4980000015,1,16019.4980000015,0,0,NA,"Click To Continue","Continue Button",2,"object-7","Task Instructions",NA,"SUPPRF71413"
"4",1700701255403,"23/11/2023 01:00:55",1700704855403,1,"23/11/2023 03:00:55",151512,7,"task-w25u",NA,33148835,9815398,NA,"complete",NA,"655e6db4d0a6130a864d8405","computer","Desktop or Laptop","Windows 10","Chrome 119.0.0.0","1366x768","1366x651",NA,NA,0,"Task Introduction and Instructions (re-introduce video and audio)",1,"DECFBGAHJI","Passed AC2","","Spreadsheet1",1,"Task Instructions","Screen 3","1qtc8v",3,"continue","",5020.14200000037,5015.924,5020.14200000037,5020.14200000037,5015.924,5020.14200000037,1,5020.14200000037,0,0,NA,"Click To Continue","Continue Button",2,"object-52","Task Instructions",NA,"SUPPRF71413"
"5",1700701261573,"23/11/2023 01:01:01",1700704861573,1,"23/11/2023 03:01:01",151512,7,"task-w25u",NA,33148835,9815398,NA,"complete",NA,"655e6db4d0a6130a864d8405","computer","Desktop or Laptop","Windows 10","Chrome 119.0.0.0","1366x768","1366x651",NA,NA,0,"Task Introduction and Instructions (re-introduce video and audio)",1,"DECFBGAHJI","Passed AC2","","Spreadsheet1",1,"Task Instructions","Screen 4","spepx9",4,"continue","",6173.51800000112,6165.704,6173.51800000112,6173.51800000112,6165.704,6173.51800000112,1,6173.51800000112,0,0,NA,"Click To Continue","Continue Button",2,"object-9","Task Instructions",NA,"SUPPRF71413"
"6",1700701265804,"23/11/2023 01:01:05",1700704865804,1,"23/11/2023 03:01:05",151512,7,"task-w25u",NA,33148835,9815398,NA,"complete",NA,"655e6db4d0a6130a864d8405","computer","Desktop or Laptop","Windows 10","Chrome 119.0.0.0","1366x768","1366x651",NA,NA,0,"Task Introduction and Instructions (re-introduce video and audio)",1,"DECFBGAHJI","Passed AC2","","Spreadsheet1",1,"Task Instructions","Screen 5","8nvnao",5,"continue","",4238.81400000112,4232.789,4238.81400000112,4238.81400000112,4232.789,4238.81400000112,1,4238.81400000112,0,0,NA,"Click To Continue","Continue Button",2,"object-44","Task Instructions",NA,"SUPPRF71413"
"7",1700701265818,"23/11/2023 01:01:05",1700704865818,1,"23/11/2023 03:01:05",151512,7,"task-w25u",NA,33148835,9815398,NA,"complete",NA,"655e6db4d0a6130a864d8405","computer","Desktop or Laptop","Windows 10","Chrome 119.0.0.0","1366x768","1366x651",NA,NA,0,"Task Introduction and Instructions (re-introduce video and audio)",1,"DECFBGAHJI","Passed AC2","","Spreadsheet1",NA,"","","",NA,"5","END",NA,NA,NA,NA,NA,NA,0,NA,NA,NA,NA,"","",NA,"","",NA,"SUPPRF71413"
"1",1700747884298,"23/11/2023 13:58:04",1700747884298,0,"23/11/2023 13:58:04",151512,7,"task-w25u",NA,33161372,9818675,NA,"complete",NA,"655f56f419524da66a3c2993","computer","Desktop or Laptop","Mac OS 10.15.7","Chrome 119.0.0.0","1440x900","1440x815",NA,NA,0,"Task Introduction and Instructions (re-introduce video and audio)",1,"FGEHDICJBA","Passed AC2","","Spreadsheet1",NA,"","","",NA,"5","BEGIN",NA,NA,NA,NA,NA,NA,0,NA,NA,NA,NA,"","",NA,"","",NA,"SUPPRF54929"
"2",1700747888032,"23/11/2023 13:58:08",1700747888032,0,"23/11/2023 13:58:08",151512,7,"task-w25u",NA,33161372,9818675,NA,"complete",NA,"655f56f419524da66a3c2993","computer","Desktop or Laptop","Mac OS 10.15.7","Chrome 119.0.0.0","1440x900","1440x815",NA,NA,0,"Task Introduction and Instructions (re-introduce video and audio)",1,"FGEHDICJBA","Passed AC2","","Spreadsheet1",1,"Task Instructions","Screen 1","anr7sn",1,"continue","",3614.04400000298,3597.48,3614.04400000298,3614.04400000298,3597.48,3614.04400000298,1,3614.04400000298,0,0,NA,"Click To Continue","Continue Button",2,"object-1944","Task Instructions",NA,"SUPPRF54929"
"3",1700747894504,"23/11/2023 13:58:14",1700747894504,0,"23/11/2023 13:58:14",151512,7,"task-w25u",NA,33161372,9818675,NA,"complete",NA,"655f56f419524da66a3c2993","computer","Desktop or Laptop","Mac OS 10.15.7","Chrome 119.0.0.0","1440x900","1440x815",NA,NA,0,"Task Introduction and Instructions (re-introduce video and audio)",1,"FGEHDICJBA","Passed AC2","","Spreadsheet1",1,"Task Instructions","Screen 2","ce2tc8",2,"continue","",6488.76400000596,6479.171,6488.76400000596,6488.76400000596,6479.171,6488.76400000596,1,6488.76400000596,0,0,NA,"Click To Continue","Continue Button",2,"object-7","Task Instructions",NA,"SUPPRF54929"
"4",1700747897506,"23/11/2023 13:58:17",1700747897506,0,"23/11/2023 13:58:17",151512,7,"task-w25u",NA,33161372,9818675,NA,"complete",NA,"655f56f419524da66a3c2993","computer","Desktop or Laptop","Mac OS 10.15.7","Chrome 119.0.0.0","1440x900","1440x815",NA,NA,0,"Task Introduction and Instructions (re-introduce video and audio)",1,"FGEHDICJBA","Passed AC2","","Spreadsheet1",1,"Task Instructions","Screen 3","1qtc8v",3,"continue","",3011.693,2997.9,3011.693,3011.693,2997.9,3011.693,1,3011.693,0,0,NA,"Click To Continue","Continue Button",2,"object-52","Task Instructions",NA,"SUPPRF54929"
"5",1700747902387,"23/11/2023 13:58:22",1700747902387,0,"23/11/2023 13:58:22",151512,7,"task-w25u",NA,33161372,9818675,NA,"complete",NA,"655f56f419524da66a3c2993","computer","Desktop or Laptop","Mac OS 10.15.7","Chrome 119.0.0.0","1440x900","1440x815",NA,NA,0,"Task Introduction and Instructions (re-introduce video and audio)",1,"FGEHDICJBA","Passed AC2","","Spreadsheet1",1,"Task Instructions","Screen 4","spepx9",4,"continue","",4895.09300000447,4880.291,4895.09300000447,4895.09300000447,4880.291,4895.09300000447,1,4895.09300000447,0,0,NA,"Click To Continue","Continue Button",2,"object-9","Task Instructions",NA,"SUPPRF54929"
"6",1700747905132,"23/11/2023 13:58:25",1700747905132,0,"23/11/2023 13:58:25",151512,7,"task-w25u",NA,33161372,9818675,NA,"complete",NA,"655f56f419524da66a3c2993","computer","Desktop or Laptop","Mac OS 10.15.7","Chrome 119.0.0.0","1440x900","1440x815",NA,NA,0,"Task Introduction and Instructions (re-introduce video and audio)",1,"FGEHDICJBA","Passed AC2","","Spreadsheet1",1,"Task Instructions","Screen 5","8nvnao",5,"continue","",2760.10200000149,2748.075,2760.10200000149,2760.10200000149,2748.075,2760.10200000149,1,2760.10200000149,0,0,NA,"Click To Continue","Continue Button",2,"object-44","Task Instructions",NA,"SUPPRF54929"
"7",1700747905145,"23/11/2023 13:58:25",1700747905145,0,"23/11/2023 13:58:25",151512,7,"task-w25u",NA,33161372,9818675,NA,"complete",NA,"655f56f419524da66a3c2993","computer","Desktop or Laptop","Mac OS 10.15.7","Chrome 119.0.0.0","1440x900","1440x815",NA,NA,0,"Task Introduction and Instructions (re-introduce video and audio)",1,"FGEHDICJBA","Passed AC2","","Spreadsheet1",NA,"","","",NA,"5","END",NA,NA,NA,NA,NA,NA,0,NA,NA,NA,NA,"","",NA,"","",NA,"SUPPRF54929"
"1",1700753612643,"23/11/2023 15:33:32",1700753612643,0,"23/11/2023 15:33:32",151512,7,"task-w25u",NA,33165287,9819886,NA,"complete",NA,"655f6f12c013c805619d27dc","computer","Desktop or Laptop","Mac OS 10.15.7","Chrome 119.0.0.0","1440x900","1440x791",NA,NA,0,"Task Introduction and Instructions (re-introduce video and audio)",1,"HIGJFAEBDC","Passed AC2","","Spreadsheet1",NA,"","","",NA,"5","BEGIN",NA,NA,NA,NA,NA,NA,0,NA,NA,NA,NA,"","",NA,"","",NA,"SUPPRF74387"
"2",1700753615891,"23/11/2023 15:33:35",1700753615891,0,"23/11/2023 15:33:35",151512,7,"task-w25u",NA,33165287,9819886,NA,"complete",NA,"655f6f12c013c805619d27dc","computer","Desktop or Laptop","Mac OS 10.15.7","Chrome 119.0.0.0","1440x900","1440x791",NA,NA,0,"Task Introduction and Instructions (re-introduce video and audio)",1,"HIGJFAEBDC","Passed AC2","","Spreadsheet1",1,"Task Instructions","Screen 1","anr7sn",1,"continue","",3060.74299999776,3050.537,3060.74299999776,3060.74299999776,3050.537,3060.74299999776,1,3060.74299999776,0,0,NA,"Click To Continue","Continue Button",2,"object-1944","Task Instructions",NA,"SUPPRF74387"
"3",1700753621590,"23/11/2023 15:33:41",1700753621590,0,"23/11/2023 15:33:41",151512,7,"task-w25u",NA,33165287,9819886,NA,"complete",NA,"655f6f12c013c805619d27dc","computer","Desktop or Laptop","Mac OS 10.15.7","Chrome 119.0.0.0","1440x900","1440x791",NA,NA,0,"Task Introduction and Instructions (re-introduce video and audio)",1,"HIGJFAEBDC","Passed AC2","","Spreadsheet1",1,"Task Instructions","Screen 2","ce2tc8",2,"continue","",5709.606,5700.114,5709.606,5709.606,5700.114,5709.606,1,5709.606,0,0,NA,"Click To Continue","Continue Button",2,"object-7","Task Instructions",NA,"SUPPRF74387"
"4",1700753624609,"23/11/2023 15:33:44",1700753624609,0,"23/11/2023 15:33:44",151512,7,"task-w25u",NA,33165287,9819886,NA,"complete",NA,"655f6f12c013c805619d27dc","computer","Desktop or Laptop","Mac OS 10.15.7","Chrome 119.0.0.0","1440x900","1440x791",NA,NA,0,"Task Introduction and Instructions (re-introduce video and audio)",1,"HIGJFAEBDC","Passed AC2","","Spreadsheet1",1,"Task Instructions","Screen 3","1qtc8v",3,"continue","",3028.19199999926,3017.204,3028.19199999926,3028.19199999926,3017.204,3028.19199999926,1,3028.19199999926,0,0,NA,"Click To Continue","Continue Button",2,"object-52","Task Instructions",NA,"SUPPRF74387"
"5",1700753627125,"23/11/2023 15:33:47",1700753627125,0,"23/11/2023 15:33:47",151512,7,"task-w25u",NA,33165287,9819886,NA,"complete",NA,"655f6f12c013c805619d27dc","computer","Desktop or Laptop","Mac OS 10.15.7","Chrome 119.0.0.0","1440x900","1440x791",NA,NA,0,"Task Introduction and Instructions (re-introduce video and audio)",1,"HIGJFAEBDC","Passed AC2","","Spreadsheet1",1,"Task Instructions","Screen 4","spepx9",4,"continue","",2526.88799999777,2516.717,2526.88799999777,2526.88799999777,2516.717,2526.88799999777,1,2526.88799999777,0,0,NA,"Click To Continue","Continue Button",2,"object-9","Task Instructions",NA,"SUPPRF74387"
"6",1700753630074,"23/11/2023 15:33:50",1700753630074,0,"23/11/2023 15:33:50",151512,7,"task-w25u",NA,33165287,9819886,NA,"complete",NA,"655f6f12c013c805619d27dc","computer","Desktop or Laptop","Mac OS 10.15.7","Chrome 119.0.0.0","1440x900","1440x791",NA,NA,0,"Task Introduction and Instructions (re-introduce video and audio)",1,"HIGJFAEBDC","Passed AC2","","Spreadsheet1",1,"Task Instructions","Screen 5","8nvnao",5,"continue","",2959.47099999851,2950.059,2959.47099999851,2959.47099999851,2950.059,2959.47099999851,1,2959.47099999851,0,0,NA,"Click To Continue","Continue Button",2,"object-44","Task Instructions",NA,"SUPPRF74387"
"7",1700753630077,"23/11/2023 15:33:50",1700753630077,0,"23/11/2023 15:33:50",151512,7,"task-w25u",NA,33165287,9819886,NA,"complete",NA,"655f6f12c013c805619d27dc","computer","Desktop or Laptop","Mac OS 10.15.7","Chrome 119.0.0.0","1440x900","1440x791",NA,NA,0,"Task Introduction and Instructions (re-introduce video and audio)",1,"HIGJFAEBDC","Passed AC2","","Spreadsheet1",NA,"","","",NA,"5","END",NA,NA,NA,NA,NA,NA,0,NA,NA,NA,NA,"","",NA,"","",NA,"SUPPRF74387"
"1",1700754045539,"23/11/2023 15:40:45",1700754045539,0,"23/11/2023 15:40:45",151512,7,"task-w25u",NA,33165597,9819862,NA,"complete",NA,"655f6e8fc7bc1e677aafb12e","computer","Desktop or Laptop","Windows 10","Chrome 119.0.0.0","1366x768","1366x633",NA,NA,0,"Task Introduction and Instructions (re-introduce video and audio)",1,"GHFIEJDACB","Passed AC2","","Spreadsheet1",NA,"","","",NA,"5","BEGIN",NA,NA,NA,NA,NA,NA,0,NA,NA,NA,NA,"","",NA,"","",NA,"SUPPRF03254"
"2",1700754049313,"23/11/2023 15:40:49",1700754049313,0,"23/11/2023 15:40:49",151512,7,"task-w25u",NA,33165597,9819862,NA,"complete",NA,"655f6e8fc7bc1e677aafb12e","computer","Desktop or Laptop","Windows 10","Chrome 119.0.0.0","1366x768","1366x633",NA,NA,0,"Task Introduction and Instructions (re-introduce video and audio)",1,"GHFIEJDACB","Passed AC2","","Spreadsheet1",1,"Task Instructions","Screen 1","anr7sn",1,"continue","",3371.41200000037,3365.884,3371.41200000037,3371.41200000037,3365.884,3371.41200000037,1,3371.41200000037,0,0,NA,"Click To Continue","Continue Button",2,"object-1944","Task Instructions",NA,"SUPPRF03254"
"3",1700754057584,"23/11/2023 15:40:57",1700754057584,0,"23/11/2023 15:40:57",151512,7,"task-w25u",NA,33165597,9819862,NA,"complete",NA,"655f6e8fc7bc1e677aafb12e","computer","Desktop or Laptop","Windows 10","Chrome 119.0.0.0","1366x768","1366x633",NA,NA,0,"Task Introduction and Instructions (re-introduce video and audio)",1,"GHFIEJDACB","Passed AC2","","Spreadsheet1",1,"Task Instructions","Screen 2","ce2tc8",2,"continue","",8278.02800000037,8265.786,8278.02800000037,8278.02800000037,8265.786,8278.02800000037,1,8278.02800000037,0,0,NA,"Click To Continue","Continue Button",2,"object-7","Task Instructions",NA,"SUPPRF03254"
"4",1700754061657,"23/11/2023 15:41:01",1700754061657,0,"23/11/2023 15:41:01",151512,7,"task-w25u",NA,33165597,9819862,NA,"complete",NA,"655f6e8fc7bc1e677aafb12e","computer","Desktop or Laptop","Windows 10","Chrome 119.0.0.0","1366x768","1366x633",NA,NA,0,"Task Introduction and Instructions (re-introduce video and audio)",1,"GHFIEJDACB","Passed AC2","","Spreadsheet1",1,"Task Instructions","Screen 3","1qtc8v",3,"continue","",4082.96,4066.269,4082.96,4082.96,4066.269,4082.96,1,4082.96,0,0,NA,"Click To Continue","Continue Button",2,"object-52","Task Instructions",NA,"SUPPRF03254"
"5",1700754064400,"23/11/2023 15:41:04",1700754064400,0,"23/11/2023 15:41:04",151512,7,"task-w25u",NA,33165597,9819862,NA,"complete",NA,"655f6e8fc7bc1e677aafb12e","computer","Desktop or Laptop","Windows 10","Chrome 119.0.0.0","1366x768","1366x633",NA,NA,0,"Task Introduction and Instructions (re-introduce video and audio)",1,"GHFIEJDACB","Passed AC2","","Spreadsheet1",1,"Task Instructions","Screen 4","spepx9",4,"continue","",2762.17300000009,2749.684,2762.17300000009,2762.17300000009,2749.684,2762.17300000009,1,2762.17300000009,0,0,NA,"Click To Continue","Continue Button",2,"object-9","Task Instructions",NA,"SUPPRF03254"
"6",1700754066881,"23/11/2023 15:41:06",1700754066881,0,"23/11/2023 15:41:06",151512,7,"task-w25u",NA,33165597,9819862,NA,"complete",NA,"655f6e8fc7bc1e677aafb12e","computer","Desktop or Laptop","Windows 10","Chrome 119.0.0.0","1366x768","1366x633",NA,NA,0,"Task Introduction and Instructions (re-introduce video and audio)",1,"GHFIEJDACB","Passed AC2","","Spreadsheet1",1,"Task Instructions","Screen 5","8nvnao",5,"continue","",2492.68900000028,2483.068,2492.68900000028,2492.68900000028,2483.068,2492.68900000028,1,2492.68900000028,0,0,NA,"Click To Continue","Continue Button",2,"object-44","Task Instructions",NA,"SUPPRF03254"
"7",1700754066898,"23/11/2023 15:41:06",1700754066898,0,"23/11/2023 15:41:06",151512,7,"task-w25u",NA,33165597,9819862,NA,"complete",NA,"655f6e8fc7bc1e677aafb12e","computer","Desktop or Laptop","Windows 10","Chrome 119.0.0.0","1366x768","1366x633",NA,NA,0,"Task Introduction and Instructions (re-introduce video and audio)",1,"GHFIEJDACB","Passed AC2","","Spreadsheet1",NA,"","","",NA,"5","END",NA,NA,NA,NA,NA,NA,0,NA,NA,NA,NA,"","",NA,"","",NA,"SUPPRF03254"
"1",1700763728626,"23/11/2023 18:22:08",1700763728626,0,"23/11/2023 18:22:08",151512,7,"task-w25u",NA,33171307,9821628,NA,"complete",NA,"655f95f98a6d110a094f9cb7","computer","Desktop or Laptop","Windows 10","Chrome 119.0.0.0","1280x720","1422x670",NA,NA,0,"Task Introduction and Instructions (re-introduce video and audio)",1,"IJHAGBFCED","Passed AC2","","Spreadsheet1",NA,"","","",NA,"5","BEGIN",NA,NA,NA,NA,NA,NA,0,NA,NA,NA,NA,"","",NA,"","",NA,"SUPPRF95208"
"2",1700763732469,"23/11/2023 18:22:12",1700763732469,0,"23/11/2023 18:22:12",151512,7,"task-w25u",NA,33171307,9821628,NA,"complete",NA,"655f95f98a6d110a094f9cb7","computer","Desktop or Laptop","Windows 10","Chrome 119.0.0.0","1280x720","1422x670",NA,NA,0,"Task Introduction and Instructions (re-introduce video and audio)",1,"IJHAGBFCED","Passed AC2","","Spreadsheet1",1,"Task Instructions","Screen 1","anr7sn",1,"continue","",3630.02900009537,3616.45,3630.02900009537,3630.02900009537,3616.45,3630.02900009537,1,3630.02900009537,0,0,NA,"Click To Continue","Continue Button",2,"object-1944","Task Instructions",NA,"SUPPRF95208"
"3",1700763742018,"23/11/2023 18:22:22",1700763742018,0,"23/11/2023 18:22:22",151512,7,"task-w25u",NA,33171307,9821628,NA,"complete",NA,"655f95f98a6d110a094f9cb7","computer","Desktop or Laptop","Windows 10","Chrome 119.0.0.0","1280x720","1422x670",NA,NA,0,"Task Introduction and Instructions (re-introduce video and audio)",1,"IJHAGBFCED","Passed AC2","","Spreadsheet1",1,"Task Instructions","Screen 2","ce2tc8",2,"continue","",9563.27900038147,9548.72,9563.27900038147,9563.27900038147,9548.72,9563.27900038147,1,9563.27900038147,0,0,NA,"Click To Continue","Continue Button",2,"object-7","Task Instructions",NA,"SUPPRF95208"
"4",1700763745114,"23/11/2023 18:22:25",1700763745114,0,"23/11/2023 18:22:25",151512,7,"task-w25u",NA,33171307,9821628,NA,"complete",NA,"655f95f98a6d110a094f9cb7","computer","Desktop or Laptop","Windows 10","Chrome 119.0.0.0","1280x720","1422x670",NA,NA,0,"Task Introduction and Instructions (re-introduce video and audio)",1,"IJHAGBFCED","Passed AC2","","Spreadsheet1",1,"Task Instructions","Screen 3","1qtc8v",3,"continue","",3110.959,3099.507,3110.959,3110.959,3099.507,3110.959,1,3110.959,0,0,NA,"Click To Continue","Continue Button",2,"object-52","Task Instructions",NA,"SUPPRF95208"
"5",1700763748006,"23/11/2023 18:22:28",1700763748006,0,"23/11/2023 18:22:28",151512,7,"task-w25u",NA,33171307,9821628,NA,"complete",NA,"655f95f98a6d110a094f9cb7","computer","Desktop or Laptop","Windows 10","Chrome 119.0.0.0","1280x720","1422x670",NA,NA,0,"Task Introduction and Instructions (re-introduce video and audio)",1,"IJHAGBFCED","Passed AC2","","Spreadsheet1",1,"Task Instructions","Screen 4","spepx9",4,"continue","",2902.85200009537,2899.6,2902.85200009537,2902.85200009537,2899.6,2902.85200009537,1,2902.85200009537,0,0,NA,"Click To Continue","Continue Button",2,"object-9","Task Instructions",NA,"SUPPRF95208"
"6",1700763751513,"23/11/2023 18:22:31",1700763751513,0,"23/11/2023 18:22:31",151512,7,"task-w25u",NA,33171307,9821628,NA,"complete",NA,"655f95f98a6d110a094f9cb7","computer","Desktop or Laptop","Windows 10","Chrome 119.0.0.0","1280x720","1422x670",NA,NA,0,"Task Introduction and Instructions (re-introduce video and audio)",1,"IJHAGBFCED","Passed AC2","","Spreadsheet1",1,"Task Instructions","Screen 5","8nvnao",5,"continue","",3510.45200038147,3499.588,3510.45200038147,3510.45200038147,3499.588,3510.45200038147,1,3510.45200038147,0,0,NA,"Click To Continue","Continue Button",2,"object-44","Task Instructions",NA,"SUPPRF95208"
"7",1700763751519,"23/11/2023 18:22:31",1700763751519,0,"23/11/2023 18:22:31",151512,7,"task-w25u",NA,33171307,9821628,NA,"complete",NA,"655f95f98a6d110a094f9cb7","computer","Desktop or Laptop","Windows 10","Chrome 119.0.0.0","1280x720","1422x670",NA,NA,0,"Task Introduction and Instructions (re-introduce video and audio)",1,"IJHAGBFCED","Passed AC2","","Spreadsheet1",NA,"","","",NA,"5","END",NA,NA,NA,NA,NA,NA,0,NA,NA,NA,NA,"","",NA,"","",NA,"SUPPRF95208"
"1",1700767793899,"23/11/2023 19:29:53",1700767793899,0,"23/11/2023 19:29:53",151512,7,"task-w25u",NA,33173043,9822048,NA,"complete",NA,"655fa57d8cd8e51c8db6d092","computer","Desktop or Laptop","Mac OS 10.15.7","Chrome 119.0.0.0","1280x800","1280x658",NA,NA,0,"Task Introduction and Instructions (re-introduce video and audio)",1,"ABJCIDHEGF","Passed AC2","","Spreadsheet1",NA,"","","",NA,"5","BEGIN",NA,NA,NA,NA,NA,NA,0,NA,NA,NA,NA,"","",NA,"","",NA,"SUPPRF98797"
"2",1700767797458,"23/11/2023 19:29:57",1700767797458,0,"23/11/2023 19:29:57",151512,7,"task-w25u",NA,33173043,9822048,NA,"complete",NA,"655fa57d8cd8e51c8db6d092","computer","Desktop or Laptop","Mac OS 10.15.7","Chrome 119.0.0.0","1280x800","1280x658",NA,NA,0,"Task Introduction and Instructions (re-introduce video and audio)",1,"ABJCIDHEGF","Passed AC2","","Spreadsheet1",1,"Task Instructions","Screen 1","anr7sn",1,"continue","",3442.722,3433.196,3442.722,3442.722,3433.196,3442.722,1,3442.722,0,0,NA,"Click To Continue","Continue Button",2,"object-1944","Task Instructions",NA,"SUPPRF98797"
"3",1700767806425,"23/11/2023 19:30:06",1700767806425,0,"23/11/2023 19:30:06",151512,7,"task-w25u",NA,33173043,9822048,NA,"complete",NA,"655fa57d8cd8e51c8db6d092","computer","Desktop or Laptop","Mac OS 10.15.7","Chrome 119.0.0.0","1280x800","1280x658",NA,NA,0,"Task Introduction and Instructions (re-introduce video and audio)",1,"ABJCIDHEGF","Passed AC2","","Spreadsheet1",1,"Task Instructions","Screen 2","ce2tc8",2,"continue","",8976.62599996424,8966.934,8976.62599996424,8976.62599996424,8966.934,8976.62599996424,1,8976.62599996424,0,0,NA,"Click To Continue","Continue Button",2,"object-7","Task Instructions",NA,"SUPPRF98797"
"4",1700767809540,"23/11/2023 19:30:09",1700767809540,0,"23/11/2023 19:30:09",151512,7,"task-w25u",NA,33173043,9822048,NA,"complete",NA,"655fa57d8cd8e51c8db6d092","computer","Desktop or Laptop","Mac OS 10.15.7","Chrome 119.0.0.0","1280x800","1280x658",NA,NA,0,"Task Introduction and Instructions (re-introduce video and audio)",1,"ABJCIDHEGF","Passed AC2","","Spreadsheet1",1,"Task Instructions","Screen 3","1qtc8v",3,"continue","",3124.89199995232,3117.194,3124.89199995232,3124.89199995232,3117.194,3124.89199995232,1,3124.89199995232,0,0,NA,"Click To Continue","Continue Button",2,"object-52","Task Instructions",NA,"SUPPRF98797"
"5",1700767823256,"23/11/2023 19:30:23",1700767823256,0,"23/11/2023 19:30:23",151512,7,"task-w25u",NA,33173043,9822048,NA,"complete",NA,"655fa57d8cd8e51c8db6d092","computer","Desktop or Laptop","Mac OS 10.15.7","Chrome 119.0.0.0","1280x800","1280x658",NA,NA,0,"Task Introduction and Instructions (re-introduce video and audio)",1,"ABJCIDHEGF","Passed AC2","","Spreadsheet1",1,"Task Instructions","Screen 4","spepx9",4,"continue","",13723.9979999642,13716.723,13723.9979999642,13723.9979999642,13716.723,13723.9979999642,1,13723.9979999642,0,0,NA,"Click To Continue","Continue Button",2,"object-9","Task Instructions",NA,"SUPPRF98797"
"6",1700767830874,"23/11/2023 19:30:30",1700767830874,0,"23/11/2023 19:30:30",151512,7,"task-w25u",NA,33173043,9822048,NA,"complete",NA,"655fa57d8cd8e51c8db6d092","computer","Desktop or Laptop","Mac OS 10.15.7","Chrome 119.0.0.0","1280x800","1280x658",NA,NA,0,"Task Introduction and Instructions (re-introduce video and audio)",1,"ABJCIDHEGF","Passed AC2","","Spreadsheet1",1,"Task Instructions","Screen 5","8nvnao",5,"continue","",7625.27499996424,7617.016,7625.27499996424,7625.27499996424,7617.016,7625.27499996424,1,7625.27499996424,0,0,NA,"Click To Continue","Continue Button",2,"object-44","Task Instructions",NA,"SUPPRF98797"
"7",1700767830880,"23/11/2023 19:30:30",1700767830880,0,"23/11/2023 19:30:30",151512,7,"task-w25u",NA,33173043,9822048,NA,"complete",NA,"655fa57d8cd8e51c8db6d092","computer","Desktop or Laptop","Mac OS 10.15.7","Chrome 119.0.0.0","1280x800","1280x658",NA,NA,0,"Task Introduction and Instructions (re-introduce video and audio)",1,"ABJCIDHEGF","Passed AC2","","Spreadsheet1",NA,"","","",NA,"5","END",NA,NA,NA,NA,NA,NA,0,NA,NA,NA,NA,"","",NA,"","",NA,"SUPPRF98797"
"1",1700769472504,"23/11/2023 19:57:52",1700769472504,0,"23/11/2023 19:57:52",151512,7,"task-w25u",NA,33173976,9822322,NA,"complete",NA,"655fac6c1d929a68de5558f4","computer","Desktop or Laptop","Mac OS 10.15.7","Chrome 119.0.0.0","1440x900","1440x788",NA,NA,0,"Task Introduction and Instructions (re-introduce video and audio)",1,"BCADJEIFHG","Passed AC2","","Spreadsheet1",NA,"","","",NA,"5","BEGIN",NA,NA,NA,NA,NA,NA,0,NA,NA,NA,NA,"","",NA,"","",NA,"SUPPRF06127"
"2",1700769475855,"23/11/2023 19:57:55",1700769475855,0,"23/11/2023 19:57:55",151512,7,"task-w25u",NA,33173976,9822322,NA,"complete",NA,"655fac6c1d929a68de5558f4","computer","Desktop or Laptop","Mac OS 10.15.7","Chrome 119.0.0.0","1440x900","1440x788",NA,NA,0,"Task Introduction and Instructions (re-introduce video and audio)",1,"BCADJEIFHG","Passed AC2","","Spreadsheet1",1,"Task Instructions","Screen 1","anr7sn",1,"continue","",3233.398,3200.064,3233.398,3233.398,3200.064,3233.398,1,3233.398,0,0,NA,"Click To Continue","Continue Button",2,"object-1944","Task Instructions",NA,"SUPPRF06127"
"3",1700769480371,"23/11/2023 19:58:00",1700769480371,0,"23/11/2023 19:58:00",151512,7,"task-w25u",NA,33173976,9822322,NA,"complete",NA,"655fac6c1d929a68de5558f4","computer","Desktop or Laptop","Mac OS 10.15.7","Chrome 119.0.0.0","1440x900","1440x788",NA,NA,0,"Task Introduction and Instructions (re-introduce video and audio)",1,"BCADJEIFHG","Passed AC2","","Spreadsheet1",1,"Task Instructions","Screen 2","ce2tc8",2,"continue","",4552.96400001788,4533.901,4552.96400001788,4552.96400001788,4533.901,4552.96400001788,1,4552.96400001788,0,0,NA,"Click To Continue","Continue Button",2,"object-7","Task Instructions",NA,"SUPPRF06127"
"4",1700769483088,"23/11/2023 19:58:03",1700769483088,0,"23/11/2023 19:58:03",151512,7,"task-w25u",NA,33173976,9822322,NA,"complete",NA,"655fac6c1d929a68de5558f4","computer","Desktop or Laptop","Mac OS 10.15.7","Chrome 119.0.0.0","1440x900","1440x788",NA,NA,0,"Task Introduction and Instructions (re-introduce video and audio)",1,"BCADJEIFHG","Passed AC2","","Spreadsheet1",1,"Task Instructions","Screen 3","1qtc8v",3,"continue","",2733.388,2700.054,2733.388,2733.388,2700.054,2733.388,1,2733.388,0,0,NA,"Click To Continue","Continue Button",2,"object-52","Task Instructions",NA,"SUPPRF06127"
"5",1700769485688,"23/11/2023 19:58:05",1700769485688,0,"23/11/2023 19:58:05",151512,7,"task-w25u",NA,33173976,9822322,NA,"complete",NA,"655fac6c1d929a68de5558f4","computer","Desktop or Laptop","Mac OS 10.15.7","Chrome 119.0.0.0","1440x900","1440x788",NA,NA,0,"Task Introduction and Instructions (re-introduce video and audio)",1,"BCADJEIFHG","Passed AC2","","Spreadsheet1",1,"Task Instructions","Screen 4","spepx9",4,"continue","",2635.90900002384,2633.386,2635.90900002384,2635.90900002384,2633.386,2635.90900002384,1,2635.90900002384,0,0,NA,"Click To Continue","Continue Button",2,"object-9","Task Instructions",NA,"SUPPRF06127"
"6",1700769488155,"23/11/2023 19:58:08",1700769488155,0,"23/11/2023 19:58:08",151512,7,"task-w25u",NA,33173976,9822322,NA,"complete",NA,"655fac6c1d929a68de5558f4","computer","Desktop or Laptop","Mac OS 10.15.7","Chrome 119.0.0.0","1440x900","1440x788",NA,NA,0,"Task Introduction and Instructions (re-introduce video and audio)",1,"BCADJEIFHG","Passed AC2","","Spreadsheet1",1,"Task Instructions","Screen 5","8nvnao",5,"continue","",2467.192,2433.858,2467.192,2467.192,2433.858,2467.192,1,2467.192,0,0,NA,"Click To Continue","Continue Button",2,"object-44","Task Instructions",NA,"SUPPRF06127"
"7",1700769488167,"23/11/2023 19:58:08",1700769488167,0,"23/11/2023 19:58:08",151512,7,"task-w25u",NA,33173976,9822322,NA,"complete",NA,"655fac6c1d929a68de5558f4","computer","Desktop or Laptop","Mac OS 10.15.7","Chrome 119.0.0.0","1440x900","1440x788",NA,NA,0,"Task Introduction and Instructions (re-introduce video and audio)",1,"BCADJEIFHG","Passed AC2","","Spreadsheet1",NA,"","","",NA,"5","END",NA,NA,NA,NA,NA,NA,0,NA,NA,NA,NA,"","",NA,"","",NA,"SUPPRF06127"
"1",1700774850709,"23/11/2023 21:27:30",1700753250709,-6,"23/11/2023 09:27:30",151512,7,"task-w25u",NA,33177370,9823009,NA,"complete",NA,"655fc1f7c8c5e7c73b2c763d","computer","Desktop or Laptop","Windows 10","Chrome 119.0.0.0","1280x720","1280x559",NA,NA,0,"Task Introduction and Instructions (re-introduce video and audio)",1,"CDBEAFJGIH","Passed AC2","","Spreadsheet1",NA,"","","",NA,"5","BEGIN",NA,NA,NA,NA,NA,NA,0,NA,NA,NA,NA,"","",NA,"","",NA,"SUPPRF84309"
"2",1700774855006,"23/11/2023 21:27:35",1700753255006,-6,"23/11/2023 09:27:35",151512,7,"task-w25u",NA,33177370,9823009,NA,"complete",NA,"655fc1f7c8c5e7c73b2c763d","computer","Desktop or Laptop","Windows 10","Chrome 119.0.0.0","1280x720","1280x559",NA,NA,0,"Task Introduction and Instructions (re-introduce video and audio)",1,"CDBEAFJGIH","Passed AC2","","Spreadsheet1",1,"Task Instructions","Screen 1","anr7sn",1,"continue","",3997.48600004768,3984.375,3997.48600004768,3997.48600004768,3984.375,3997.48600004768,1,3997.48600004768,0,0,NA,"Click To Continue","Continue Button",2,"object-1944","Task Instructions",NA,"SUPPRF84309"
"3",1700774859743,"23/11/2023 21:27:39",1700753259743,-6,"23/11/2023 09:27:39",151512,7,"task-w25u",NA,33177370,9823009,NA,"complete",NA,"655fc1f7c8c5e7c73b2c763d","computer","Desktop or Laptop","Windows 10","Chrome 119.0.0.0","1280x720","1280x559",NA,NA,0,"Task Introduction and Instructions (re-introduce video and audio)",1,"CDBEAFJGIH","Passed AC2","","Spreadsheet1",1,"Task Instructions","Screen 2","ce2tc8",2,"continue","",4750,4734.375,4750,4750,4734.375,4750,1,4750,0,0,NA,"Click To Continue","Continue Button",2,"object-7","Task Instructions",NA,"SUPPRF84309"
"4",1700774862777,"23/11/2023 21:27:42",1700753262777,-6,"23/11/2023 09:27:42",151512,7,"task-w25u",NA,33177370,9823009,NA,"complete",NA,"655fc1f7c8c5e7c73b2c763d","computer","Desktop or Laptop","Windows 10","Chrome 119.0.0.0","1280x720","1280x559",NA,NA,0,"Task Introduction and Instructions (re-introduce video and audio)",1,"CDBEAFJGIH","Passed AC2","","Spreadsheet1",1,"Task Instructions","Screen 3","1qtc8v",3,"continue","",3050.036,3046.875,3050.036,3050.036,3046.875,3050.036,1,3050.036,0,0,NA,"Click To Continue","Continue Button",2,"object-52","Task Instructions",NA,"SUPPRF84309"
"5",1700774867169,"23/11/2023 21:27:47",1700753267169,-6,"23/11/2023 09:27:47",151512,7,"task-w25u",NA,33177370,9823009,NA,"complete",NA,"655fc1f7c8c5e7c73b2c763d","computer","Desktop or Laptop","Windows 10","Chrome 119.0.0.0","1280x720","1280x559",NA,NA,0,"Task Introduction and Instructions (re-introduce video and audio)",1,"CDBEAFJGIH","Passed AC2","","Spreadsheet1",1,"Task Instructions","Screen 4","spepx9",4,"continue","",4395.661,4390.625,4395.661,4395.661,4390.625,4395.661,1,4395.661,0,0,NA,"Click To Continue","Continue Button",2,"object-9","Task Instructions",NA,"SUPPRF84309"
"6",1700774870056,"23/11/2023 21:27:50",1700753270056,-6,"23/11/2023 09:27:50",151512,7,"task-w25u",NA,33177370,9823009,NA,"complete",NA,"655fc1f7c8c5e7c73b2c763d","computer","Desktop or Laptop","Windows 10","Chrome 119.0.0.0","1280x720","1280x559",NA,NA,0,"Task Introduction and Instructions (re-introduce video and audio)",1,"CDBEAFJGIH","Passed AC2","","Spreadsheet1",1,"Task Instructions","Screen 5","8nvnao",5,"continue","",2890.625,2875,2890.625,2890.625,2875,2890.625,1,2890.625,0,0,NA,"Click To Continue","Continue Button",2,"object-44","Task Instructions",NA,"SUPPRF84309"
"7",1700774870058,"23/11/2023 21:27:50",1700753270058,-6,"23/11/2023 09:27:50",151512,7,"task-w25u",NA,33177370,9823009,NA,"complete",NA,"655fc1f7c8c5e7c73b2c763d","computer","Desktop or Laptop","Windows 10","Chrome 119.0.0.0","1280x720","1280x559",NA,NA,0,"Task Introduction and Instructions (re-introduce video and audio)",1,"CDBEAFJGIH","Passed AC2","","Spreadsheet1",NA,"","","",NA,"5","END",NA,NA,NA,NA,NA,NA,0,NA,NA,NA,NA,"","",NA,"","",NA,"SUPPRF84309"
"1",1700853652944,"24/11/2023 19:20:52",1700853652944,0,"24/11/2023 19:20:52",151512,7,"task-w25u",NA,33198315,9828778,NA,"complete",NA,"6560f533b83c7ebeccad87b1","computer","Desktop or Laptop","Windows 10","Chrome 119.0.0.0","1536x864","1536x695",NA,NA,0,"Task Introduction and Instructions (re-introduce video and audio)",1,"DECFBGAHJI","Passed AC2","","Spreadsheet1",NA,"","","",NA,"5","BEGIN",NA,NA,NA,NA,NA,NA,0,NA,NA,NA,NA,"","",NA,"","",NA,"SUPPRF93936"
"2",1700853656188,"24/11/2023 19:20:56",1700853656188,0,"24/11/2023 19:20:56",151512,7,"task-w25u",NA,33198315,9828778,NA,"complete",NA,"6560f533b83c7ebeccad87b1","computer","Desktop or Laptop","Windows 10","Chrome 119.0.0.0","1536x864","1536x695",NA,NA,0,"Task Introduction and Instructions (re-introduce video and audio)",1,"DECFBGAHJI","Passed AC2","","Spreadsheet1",1,"Task Instructions","Screen 1","anr7sn",1,"continue","",3191.245,3188.816,3191.245,3191.245,3188.816,3191.245,1,3191.245,0,0,NA,"Click To Continue","Continue Button",2,"object-1944","Task Instructions",NA,"SUPPRF93936"
"3",1700853663465,"24/11/2023 19:21:03",1700853663465,0,"24/11/2023 19:21:03",151512,7,"task-w25u",NA,33198315,9828778,NA,"complete",NA,"6560f533b83c7ebeccad87b1","computer","Desktop or Laptop","Windows 10","Chrome 119.0.0.0","1536x864","1536x695",NA,NA,0,"Task Introduction and Instructions (re-introduce video and audio)",1,"DECFBGAHJI","Passed AC2","","Spreadsheet1",1,"Task Instructions","Screen 2","ce2tc8",2,"continue","",7279.82900009537,7276.784,7279.82900009537,7279.82900009537,7276.784,7279.82900009537,1,7279.82900009537,0,0,NA,"Click To Continue","Continue Button",2,"object-7","Task Instructions",NA,"SUPPRF93936"
"4",1700853666062,"24/11/2023 19:21:06",1700853666062,0,"24/11/2023 19:21:06",151512,7,"task-w25u",NA,33198315,9828778,NA,"complete",NA,"6560f533b83c7ebeccad87b1","computer","Desktop or Laptop","Windows 10","Chrome 119.0.0.0","1536x864","1536x695",NA,NA,0,"Task Introduction and Instructions (re-introduce video and audio)",1,"DECFBGAHJI","Passed AC2","","Spreadsheet1",1,"Task Instructions","Screen 3","1qtc8v",3,"continue","",2600.24500002384,2597.675,2600.24500002384,2600.24500002384,2597.675,2600.24500002384,1,2600.24500002384,0,0,NA,"Click To Continue","Continue Button",2,"object-52","Task Instructions",NA,"SUPPRF93936"
"5",1700853668416,"24/11/2023 19:21:08",1700853668416,0,"24/11/2023 19:21:08",151512,7,"task-w25u",NA,33198315,9828778,NA,"complete",NA,"6560f533b83c7ebeccad87b1","computer","Desktop or Laptop","Windows 10","Chrome 119.0.0.0","1536x864","1536x695",NA,NA,0,"Task Introduction and Instructions (re-introduce video and audio)",1,"DECFBGAHJI","Passed AC2","","Spreadsheet1",1,"Task Instructions","Screen 4","spepx9",4,"continue","",2356.467,2348.001,2356.467,2356.467,2348.001,2356.467,1,2356.467,0,0,NA,"Click To Continue","Continue Button",2,"object-9","Task Instructions",NA,"SUPPRF93936"
"6",1700853670736,"24/11/2023 19:21:10",1700853670736,0,"24/11/2023 19:21:10",151512,7,"task-w25u",NA,33198315,9828778,NA,"complete",NA,"6560f533b83c7ebeccad87b1","computer","Desktop or Laptop","Windows 10","Chrome 119.0.0.0","1536x864","1536x695",NA,NA,0,"Task Introduction and Instructions (re-introduce video and audio)",1,"DECFBGAHJI","Passed AC2","","Spreadsheet1",1,"Task Instructions","Screen 5","8nvnao",5,"continue","",2328.06900002384,2322.818,2328.06900002384,2328.06900002384,2322.818,2328.06900002384,1,2328.06900002384,0,0,NA,"Click To Continue","Continue Button",2,"object-44","Task Instructions",NA,"SUPPRF93936"
"7",1700853670737,"24/11/2023 19:21:10",1700853670737,0,"24/11/2023 19:21:10",151512,7,"task-w25u",NA,33198315,9828778,NA,"complete",NA,"6560f533b83c7ebeccad87b1","computer","Desktop or Laptop","Windows 10","Chrome 119.0.0.0","1536x864","1536x695",NA,NA,0,"Task Introduction and Instructions (re-introduce video and audio)",1,"DECFBGAHJI","Passed AC2","","Spreadsheet1",NA,"","","",NA,"5","END",NA,NA,NA,NA,NA,NA,0,NA,NA,NA,NA,"","",NA,"","",NA,"SUPPRF93936"
"1",1700855190136,"24/11/2023 19:46:30",1700833590136,-6,"24/11/2023 07:46:30",151512,7,"task-w25u",NA,33198629,9828854,NA,"complete",NA,"6560fb46fedd7d2acf3a2923","computer","Desktop or Laptop","Mac OS 10.15.7","Chrome 118.0.0.0","1440x900","1034x680",NA,NA,0,"Task Introduction and Instructions (re-introduce video and audio)",1,"EFDGCHBIAJ","Passed AC2","","Spreadsheet1",NA,"","","",NA,"5","BEGIN",NA,NA,NA,NA,NA,NA,0,NA,NA,NA,NA,"","",NA,"","",NA,"SUPPRF78461"
"2",1700855194933,"24/11/2023 19:46:34",1700833594933,-6,"24/11/2023 07:46:34",151512,7,"task-w25u",NA,33198629,9828854,NA,"complete",NA,"6560fb46fedd7d2acf3a2923","computer","Desktop or Laptop","Mac OS 10.15.7","Chrome 118.0.0.0","1440x900","1034x680",NA,NA,0,"Task Introduction and Instructions (re-introduce video and audio)",1,"EFDGCHBIAJ","Passed AC2","","Spreadsheet1",1,"Task Instructions","Screen 1","anr7sn",1,"continue","",4075.71000009537,4066.961,4075.71000009537,4075.71000009537,4066.961,4075.71000009537,1,4075.71000009537,0,0,NA,"Click To Continue","Continue Button",2,"object-1944","Task Instructions",NA,"SUPPRF78461"
"3",1700855198997,"24/11/2023 19:46:38",1700833598997,-6,"24/11/2023 07:46:38",151512,7,"task-w25u",NA,33198629,9828854,NA,"complete",NA,"6560fb46fedd7d2acf3a2923","computer","Desktop or Laptop","Mac OS 10.15.7","Chrome 118.0.0.0","1440x900","1034x680",NA,NA,0,"Task Introduction and Instructions (re-introduce video and audio)",1,"EFDGCHBIAJ","Passed AC2","","Spreadsheet1",1,"Task Instructions","Screen 2","ce2tc8",2,"continue","",4073.14899995232,4066.504,4073.14899995232,4073.14899995232,4066.504,4073.14899995232,1,4073.14899995232,0,0,NA,"Click To Continue","Continue Button",2,"object-7","Task Instructions",NA,"SUPPRF78461"
"4",1700855202018,"24/11/2023 19:46:42",1700833602018,-6,"24/11/2023 07:46:42",151512,7,"task-w25u",NA,33198629,9828854,NA,"complete",NA,"6560fb46fedd7d2acf3a2923","computer","Desktop or Laptop","Mac OS 10.15.7","Chrome 118.0.0.0","1440x900","1034x680",NA,NA,0,"Task Introduction and Instructions (re-introduce video and audio)",1,"EFDGCHBIAJ","Passed AC2","","Spreadsheet1",1,"Task Instructions","Screen 3","1qtc8v",3,"continue","",3027.44500014305,3016.546,3027.44500014305,3027.44500014305,3016.546,3027.44500014305,1,3027.44500014305,0,0,NA,"Click To Continue","Continue Button",2,"object-52","Task Instructions",NA,"SUPPRF78461"
"5",1700855204717,"24/11/2023 19:46:44",1700833604717,-6,"24/11/2023 07:46:44",151512,7,"task-w25u",NA,33198629,9828854,NA,"complete",NA,"6560fb46fedd7d2acf3a2923","computer","Desktop or Laptop","Mac OS 10.15.7","Chrome 118.0.0.0","1440x900","1034x680",NA,NA,0,"Task Introduction and Instructions (re-introduce video and audio)",1,"EFDGCHBIAJ","Passed AC2","","Spreadsheet1",1,"Task Instructions","Screen 4","spepx9",4,"continue","",2710.19900009537,2700.333,2710.19900009537,2710.19900009537,2700.333,2710.19900009537,1,2710.19900009537,0,0,NA,"Click To Continue","Continue Button",2,"object-9","Task Instructions",NA,"SUPPRF78461"
"6",1700855208019,"24/11/2023 19:46:48",1700833608019,-6,"24/11/2023 07:46:48",151512,7,"task-w25u",NA,33198629,9828854,NA,"complete",NA,"6560fb46fedd7d2acf3a2923","computer","Desktop or Laptop","Mac OS 10.15.7","Chrome 118.0.0.0","1440x900","1034x680",NA,NA,0,"Task Introduction and Instructions (re-introduce video and audio)",1,"EFDGCHBIAJ","Passed AC2","","Spreadsheet1",1,"Task Instructions","Screen 5","8nvnao",5,"continue","",3311.966,3299.868,3311.966,3311.966,3299.868,3311.966,1,3311.966,0,0,NA,"Click To Continue","Continue Button",2,"object-44","Task Instructions",NA,"SUPPRF78461"
"7",1700855208026,"24/11/2023 19:46:48",1700833608026,-6,"24/11/2023 07:46:48",151512,7,"task-w25u",NA,33198629,9828854,NA,"complete",NA,"6560fb46fedd7d2acf3a2923","computer","Desktop or Laptop","Mac OS 10.15.7","Chrome 118.0.0.0","1440x900","1034x680",NA,NA,0,"Task Introduction and Instructions (re-introduce video and audio)",1,"EFDGCHBIAJ","Passed AC2","","Spreadsheet1",NA,"","","",NA,"5","END",NA,NA,NA,NA,NA,NA,0,NA,NA,NA,NA,"","",NA,"","",NA,"SUPPRF78461"
"1",1700879385627,"25/11/2023 02:29:45",1700850585627,-8,"24/11/2023 10:29:45",151512,7,"task-w25u",NA,33202330,9829808,NA,"complete",NA,"65615792de96a45527121def","computer","Desktop or Laptop","Windows 10","Chrome 119.0.0.0","2048x1152","2048x1035",NA,NA,0,"Task Introduction and Instructions (re-introduce video and audio)",1,"FGEHDICJBA","Passed AC2","","Spreadsheet1",NA,"","","",NA,"5","BEGIN",NA,NA,NA,NA,NA,NA,0,NA,NA,NA,NA,"","",NA,"","",NA,"SUPPRF00216"
"2",1700879390431,"25/11/2023 02:29:50",1700850590431,-8,"24/11/2023 10:29:50",151512,7,"task-w25u",NA,33202330,9829808,NA,"complete",NA,"65615792de96a45527121def","computer","Desktop or Laptop","Windows 10","Chrome 119.0.0.0","2048x1152","2048x1035",NA,NA,0,"Task Introduction and Instructions (re-introduce video and audio)",1,"FGEHDICJBA","Passed AC2","","Spreadsheet1",1,"Task Instructions","Screen 1","anr7sn",1,"continue","",4052.939,4048.594,4052.939,4052.939,4048.594,4052.939,1,4052.939,0,0,NA,"Click To Continue","Continue Button",2,"object-1944","Task Instructions",NA,"SUPPRF00216"
"3",1700879395635,"25/11/2023 02:29:55",1700850595635,-8,"24/11/2023 10:29:55",151512,7,"task-w25u",NA,33202330,9829808,NA,"complete",NA,"65615792de96a45527121def","computer","Desktop or Laptop","Windows 10","Chrome 119.0.0.0","2048x1152","2048x1035",NA,NA,0,"Task Introduction and Instructions (re-introduce video and audio)",1,"FGEHDICJBA","Passed AC2","","Spreadsheet1",1,"Task Instructions","Screen 2","ce2tc8",2,"continue","",5208.242,5201.298,5208.242,5208.242,5201.298,5208.242,1,5208.242,0,0,NA,"Click To Continue","Continue Button",2,"object-7","Task Instructions",NA,"SUPPRF00216"
"4",1700879398264,"25/11/2023 02:29:58",1700850598264,-8,"24/11/2023 10:29:58",151512,7,"task-w25u",NA,33202330,9829808,NA,"complete",NA,"65615792de96a45527121def","computer","Desktop or Laptop","Windows 10","Chrome 119.0.0.0","2048x1152","2048x1035",NA,NA,0,"Task Introduction and Instructions (re-introduce video and audio)",1,"FGEHDICJBA","Passed AC2","","Spreadsheet1",1,"Task Instructions","Screen 3","1qtc8v",3,"continue","",2635.74700000019,2631.926,2635.74700000019,2635.74700000019,2631.926,2635.74700000019,1,2635.74700000019,0,0,NA,"Click To Continue","Continue Button",2,"object-52","Task Instructions",NA,"SUPPRF00216"
"5",1700879402444,"25/11/2023 02:30:02",1700850602444,-8,"24/11/2023 10:30:02",151512,7,"task-w25u",NA,33202330,9829808,NA,"complete",NA,"65615792de96a45527121def","computer","Desktop or Laptop","Windows 10","Chrome 119.0.0.0","2048x1152","2048x1035",NA,NA,0,"Task Introduction and Instructions (re-introduce video and audio)",1,"FGEHDICJBA","Passed AC2","","Spreadsheet1",1,"Task Instructions","Screen 4","spepx9",4,"continue","",4183.82100000019,4180.524,4183.82100000019,4183.82100000019,4180.524,4183.82100000019,1,4183.82100000019,0,0,NA,"Click To Continue","Continue Button",2,"object-9","Task Instructions",NA,"SUPPRF00216"
"6",1700879405018,"25/11/2023 02:30:05",1700850605018,-8,"24/11/2023 10:30:05",151512,7,"task-w25u",NA,33202330,9829808,NA,"complete",NA,"65615792de96a45527121def","computer","Desktop or Laptop","Windows 10","Chrome 119.0.0.0","2048x1152","2048x1035",NA,NA,0,"Task Introduction and Instructions (re-introduce video and audio)",1,"FGEHDICJBA","Passed AC2","","Spreadsheet1",1,"Task Instructions","Screen 5","8nvnao",5,"continue","",2577.39699999982,2576.348,2577.39699999982,2577.39699999982,2576.348,2577.39699999982,1,2577.39699999982,0,0,NA,"Click To Continue","Continue Button",2,"object-44","Task Instructions",NA,"SUPPRF00216"
"7",1700879405021,"25/11/2023 02:30:05",1700850605021,-8,"24/11/2023 10:30:05",151512,7,"task-w25u",NA,33202330,9829808,NA,"complete",NA,"65615792de96a45527121def","computer","Desktop or Laptop","Windows 10","Chrome 119.0.0.0","2048x1152","2048x1035",NA,NA,0,"Task Introduction and Instructions (re-introduce video and audio)",1,"FGEHDICJBA","Passed AC2","","Spreadsheet1",NA,"","","",NA,"5","END",NA,NA,NA,NA,NA,NA,0,NA,NA,NA,NA,"","",NA,"","",NA,"SUPPRF00216"
"1",1700907979757,"25/11/2023 10:26:19",1700907979757,0,"25/11/2023 10:26:19",151512,7,"task-w25u",NA,33204633,9830271,NA,"complete",NA,"6561c0ea8bd1c8dbba122673","computer","Desktop or Laptop","Chromium OS 14541.0.0","Chrome 118.0.0.0","1396x785","1746x827",NA,NA,0,"Task Introduction and Instructions (re-introduce video and audio)",1,"GHFIEJDACB","Passed AC2","","Spreadsheet1",NA,"","","",NA,"5","BEGIN",NA,NA,NA,NA,NA,NA,0,NA,NA,NA,NA,"","",NA,"","",NA,"SUPPRF79304"
"2",1700907983836,"25/11/2023 10:26:23",1700907983836,0,"25/11/2023 10:26:23",151512,7,"task-w25u",NA,33204633,9830271,NA,"complete",NA,"6561c0ea8bd1c8dbba122673","computer","Desktop or Laptop","Chromium OS 14541.0.0","Chrome 118.0.0.0","1396x785","1746x827",NA,NA,0,"Task Introduction and Instructions (re-introduce video and audio)",1,"GHFIEJDACB","Passed AC2","","Spreadsheet1",1,"Task Instructions","Screen 1","anr7sn",1,"continue","",3913.594,3896.932,3913.594,3913.594,3896.932,3913.594,1,3913.594,0,0,NA,"Click To Continue","Continue Button",2,"object-1944","Task Instructions",NA,"SUPPRF79304"
"3",1700907987918,"25/11/2023 10:26:27",1700907987918,0,"25/11/2023 10:26:27",151512,7,"task-w25u",NA,33204633,9830271,NA,"complete",NA,"6561c0ea8bd1c8dbba122673","computer","Desktop or Laptop","Chromium OS 14541.0.0","Chrome 118.0.0.0","1396x785","1746x827",NA,NA,0,"Task Introduction and Instructions (re-introduce video and audio)",1,"GHFIEJDACB","Passed AC2","","Spreadsheet1",1,"Task Instructions","Screen 2","ce2tc8",2,"continue","",4103.09099999888,4096.361,4103.09099999888,4103.09099999888,4096.361,4103.09099999888,1,4103.09099999888,0,0,NA,"Click To Continue","Continue Button",2,"object-7","Task Instructions",NA,"SUPPRF79304"
"4",1700907991676,"25/11/2023 10:26:31",1700907991676,0,"25/11/2023 10:26:31",151512,7,"task-w25u",NA,33204633,9830271,NA,"complete",NA,"6561c0ea8bd1c8dbba122673","computer","Desktop or Laptop","Chromium OS 14541.0.0","Chrome 118.0.0.0","1396x785","1746x827",NA,NA,0,"Task Introduction and Instructions (re-introduce video and audio)",1,"GHFIEJDACB","Passed AC2","","Spreadsheet1",1,"Task Instructions","Screen 3","1qtc8v",3,"continue","",3764.295,3747.633,3764.295,3764.295,3747.633,3764.295,1,3764.295,0,0,NA,"Click To Continue","Continue Button",2,"object-52","Task Instructions",NA,"SUPPRF79304"
"5",1700907994998,"25/11/2023 10:26:34",1700907994998,0,"25/11/2023 10:26:34",151512,7,"task-w25u",NA,33204633,9830271,NA,"complete",NA,"6561c0ea8bd1c8dbba122673","computer","Desktop or Laptop","Chromium OS 14541.0.0","Chrome 118.0.0.0","1396x785","1746x827",NA,NA,0,"Task Introduction and Instructions (re-introduce video and audio)",1,"GHFIEJDACB","Passed AC2","","Spreadsheet1",1,"Task Instructions","Screen 4","spepx9",4,"continue","",3339.09699999888,3330.251,3339.09699999888,3339.09699999888,3330.251,3339.09699999888,1,3339.09699999888,0,0,NA,"Click To Continue","Continue Button",2,"object-9","Task Instructions",NA,"SUPPRF79304"
"6",1700907997544,"25/11/2023 10:26:37",1700907997544,0,"25/11/2023 10:26:37",151512,7,"task-w25u",NA,33204633,9830271,NA,"complete",NA,"6561c0ea8bd1c8dbba122673","computer","Desktop or Laptop","Chromium OS 14541.0.0","Chrome 118.0.0.0","1396x785","1746x827",NA,NA,0,"Task Introduction and Instructions (re-introduce video and audio)",1,"GHFIEJDACB","Passed AC2","","Spreadsheet1",1,"Task Instructions","Screen 5","8nvnao",5,"continue","",2555.546,2547.389,2555.546,2555.546,2547.389,2555.546,1,2555.546,0,0,NA,"Click To Continue","Continue Button",2,"object-44","Task Instructions",NA,"SUPPRF79304"
"7",1700907997554,"25/11/2023 10:26:37",1700907997554,0,"25/11/2023 10:26:37",151512,7,"task-w25u",NA,33204633,9830271,NA,"complete",NA,"6561c0ea8bd1c8dbba122673","computer","Desktop or Laptop","Chromium OS 14541.0.0","Chrome 118.0.0.0","1396x785","1746x827",NA,NA,0,"Task Introduction and Instructions (re-introduce video and audio)",1,"GHFIEJDACB","Passed AC2","","Spreadsheet1",NA,"","","",NA,"5","END",NA,NA,NA,NA,NA,NA,0,NA,NA,NA,NA,"","",NA,"","",NA,"SUPPRF79304"
"1",1700928068194,"25/11/2023 16:01:08",1700928068194,0,"25/11/2023 16:01:08",151512,7,"task-w25u",NA,33209374,9831863,NA,"complete",NA,"656217e4268139dc7d14f539","computer","Desktop or Laptop","Windows 10","Chrome 119.0.0.0","1280x720","1280x595",NA,NA,0,"Task Introduction and Instructions (re-introduce video and audio)",1,"HIGJFAEBDC","Passed AC2","","Spreadsheet1",NA,"","","",NA,"5","BEGIN",NA,NA,NA,NA,NA,NA,0,NA,NA,NA,NA,"","",NA,"","",NA,"SUPPRF73458"
"2",1700928072243,"25/11/2023 16:01:12",1700928072243,0,"25/11/2023 16:01:12",151512,7,"task-w25u",NA,33209374,9831863,NA,"complete",NA,"656217e4268139dc7d14f539","computer","Desktop or Laptop","Windows 10","Chrome 119.0.0.0","1280x720","1280x595",NA,NA,0,"Task Introduction and Instructions (re-introduce video and audio)",1,"HIGJFAEBDC","Passed AC2","","Spreadsheet1",1,"Task Instructions","Screen 1","anr7sn",1,"continue","",3933.03100000002,3916.695,3933.03100000002,3933.03100000002,3916.695,3933.03100000002,1,3933.03100000002,0,0,NA,"Click To Continue","Continue Button",2,"object-1944","Task Instructions",NA,"SUPPRF73458"
"3",1700928075078,"25/11/2023 16:01:15",1700928075078,0,"25/11/2023 16:01:15",151512,7,"task-w25u",NA,33209374,9831863,NA,"complete",NA,"656217e4268139dc7d14f539","computer","Desktop or Laptop","Windows 10","Chrome 119.0.0.0","1280x720","1280x595",NA,NA,0,"Task Introduction and Instructions (re-introduce video and audio)",1,"HIGJFAEBDC","Passed AC2","","Spreadsheet1",1,"Task Instructions","Screen 2","ce2tc8",2,"continue","",2850.891,2833.812,2850.891,2850.891,2833.812,2850.891,1,2850.891,0,0,NA,"Click To Continue","Continue Button",2,"object-7","Task Instructions",NA,"SUPPRF73458"
"4",1700928078539,"25/11/2023 16:01:18",1700928078539,0,"25/11/2023 16:01:18",151512,7,"task-w25u",NA,33209374,9831863,NA,"complete",NA,"656217e4268139dc7d14f539","computer","Desktop or Laptop","Windows 10","Chrome 119.0.0.0","1280x720","1280x595",NA,NA,0,"Task Introduction and Instructions (re-introduce video and audio)",1,"HIGJFAEBDC","Passed AC2","","Spreadsheet1",1,"Task Instructions","Screen 3","1qtc8v",3,"continue","",3478.82400000007,3466.271,3478.82400000007,3478.82400000007,3466.271,3478.82400000007,1,3478.82400000007,0,0,NA,"Click To Continue","Continue Button",2,"object-52","Task Instructions",NA,"SUPPRF73458"
"5",1700928083718,"25/11/2023 16:01:23",1700928083718,0,"25/11/2023 16:01:23",151512,7,"task-w25u",NA,33209374,9831863,NA,"complete",NA,"656217e4268139dc7d14f539","computer","Desktop or Laptop","Windows 10","Chrome 119.0.0.0","1280x720","1280x595",NA,NA,0,"Task Introduction and Instructions (re-introduce video and audio)",1,"HIGJFAEBDC","Passed AC2","","Spreadsheet1",1,"Task Instructions","Screen 4","spepx9",4,"continue","",5191.853,5183.318,5191.853,5191.853,5183.318,5191.853,1,5191.853,0,0,NA,"Click To Continue","Continue Button",2,"object-9","Task Instructions",NA,"SUPPRF73458"
"6",1700928086303,"25/11/2023 16:01:26",1700928086303,0,"25/11/2023 16:01:26",151512,7,"task-w25u",NA,33209374,9831863,NA,"complete",NA,"656217e4268139dc7d14f539","computer","Desktop or Laptop","Windows 10","Chrome 119.0.0.0","1280x720","1280x595",NA,NA,0,"Task Introduction and Instructions (re-introduce video and audio)",1,"HIGJFAEBDC","Passed AC2","","Spreadsheet1",1,"Task Instructions","Screen 5","8nvnao",5,"continue","",2593.43500000002,2583.46,2593.43500000002,2593.43500000002,2583.46,2593.43500000002,1,2593.43500000002,0,0,NA,"Click To Continue","Continue Button",2,"object-44","Task Instructions",NA,"SUPPRF73458"
"7",1700928086308,"25/11/2023 16:01:26",1700928086308,0,"25/11/2023 16:01:26",151512,7,"task-w25u",NA,33209374,9831863,NA,"complete",NA,"656217e4268139dc7d14f539","computer","Desktop or Laptop","Windows 10","Chrome 119.0.0.0","1280x720","1280x595",NA,NA,0,"Task Introduction and Instructions (re-introduce video and audio)",1,"HIGJFAEBDC","Passed AC2","","Spreadsheet1",NA,"","","",NA,"5","END",NA,NA,NA,NA,NA,NA,0,NA,NA,NA,NA,"","",NA,"","",NA,"SUPPRF73458"
"1",1700928106201,"25/11/2023 16:01:46",1700928106201,0,"25/11/2023 16:01:46",151512,7,"task-w25u",NA,33209385,9831872,NA,"complete",NA,"656218298ba47d32520bc4b1","computer","Desktop or Laptop","Mac OS 10.15.7","Chrome 119.0.0.0","1440x900","1440x735",NA,NA,0,"Task Introduction and Instructions (re-introduce video and audio)",1,"IJHAGBFCED","Passed AC2","","Spreadsheet1",NA,"","","",NA,"5","BEGIN",NA,NA,NA,NA,NA,NA,0,NA,NA,NA,NA,"","",NA,"","",NA,"SUPPRF99862"
"2",1700928110252,"25/11/2023 16:01:50",1700928110252,0,"25/11/2023 16:01:50",151512,7,"task-w25u",NA,33209385,9831872,NA,"complete",NA,"656218298ba47d32520bc4b1","computer","Desktop or Laptop","Mac OS 10.15.7","Chrome 119.0.0.0","1440x900","1440x735",NA,NA,0,"Task Introduction and Instructions (re-introduce video and audio)",1,"IJHAGBFCED","Passed AC2","","Spreadsheet1",1,"Task Instructions","Screen 1","anr7sn",1,"continue","",3983.891,3967.222,3983.891,3983.891,3967.222,3983.891,1,3983.891,0,0,NA,"Click To Continue","Continue Button",2,"object-1944","Task Instructions",NA,"SUPPRF99862"
"3",1700928117136,"25/11/2023 16:01:57",1700928117136,0,"25/11/2023 16:01:57",151512,7,"task-w25u",NA,33209385,9831872,NA,"complete",NA,"656218298ba47d32520bc4b1","computer","Desktop or Laptop","Mac OS 10.15.7","Chrome 119.0.0.0","1440x900","1440x735",NA,NA,0,"Task Introduction and Instructions (re-introduce video and audio)",1,"IJHAGBFCED","Passed AC2","","Spreadsheet1",1,"Task Instructions","Screen 2","ce2tc8",2,"continue","",6902.997,6901.189,6902.997,6902.997,6901.189,6902.997,1,6902.997,0,0,NA,"Click To Continue","Continue Button",2,"object-7","Task Instructions",NA,"SUPPRF99862"
"4",1700928121002,"25/11/2023 16:02:01",1700928121002,0,"25/11/2023 16:02:01",151512,7,"task-w25u",NA,33209385,9831872,NA,"complete",NA,"656218298ba47d32520bc4b1","computer","Desktop or Laptop","Mac OS 10.15.7","Chrome 119.0.0.0","1440x900","1440x735",NA,NA,0,"Task Introduction and Instructions (re-introduce video and audio)",1,"IJHAGBFCED","Passed AC2","","Spreadsheet1",1,"Task Instructions","Screen 3","1qtc8v",3,"continue","",3867.208,3850.539,3867.208,3867.208,3850.539,3867.208,1,3867.208,0,0,NA,"Click To Continue","Continue Button",2,"object-52","Task Instructions",NA,"SUPPRF99862"
"5",1700928124119,"25/11/2023 16:02:04",1700928124119,0,"25/11/2023 16:02:04",151512,7,"task-w25u",NA,33209385,9831872,NA,"complete",NA,"656218298ba47d32520bc4b1","computer","Desktop or Laptop","Mac OS 10.15.7","Chrome 119.0.0.0","1440x900","1440x735",NA,NA,0,"Task Introduction and Instructions (re-introduce video and audio)",1,"IJHAGBFCED","Passed AC2","","Spreadsheet1",1,"Task Instructions","Screen 4","spepx9",4,"continue","",3133.994,3117.325,3133.994,3133.994,3117.325,3133.994,1,3133.994,0,0,NA,"Click To Continue","Continue Button",2,"object-9","Task Instructions",NA,"SUPPRF99862"
"6",1700928126954,"25/11/2023 16:02:06",1700928126954,0,"25/11/2023 16:02:06",151512,7,"task-w25u",NA,33209385,9831872,NA,"complete",NA,"656218298ba47d32520bc4b1","computer","Desktop or Laptop","Mac OS 10.15.7","Chrome 119.0.0.0","1440x900","1440x735",NA,NA,0,"Task Introduction and Instructions (re-introduce video and audio)",1,"IJHAGBFCED","Passed AC2","","Spreadsheet1",1,"Task Instructions","Screen 5","8nvnao",5,"continue","",2850.399,2833.73,2850.399,2850.399,2833.73,2850.399,1,2850.399,0,0,NA,"Click To Continue","Continue Button",2,"object-44","Task Instructions",NA,"SUPPRF99862"
"7",1700928126956,"25/11/2023 16:02:06",1700928126956,0,"25/11/2023 16:02:06",151512,7,"task-w25u",NA,33209385,9831872,NA,"complete",NA,"656218298ba47d32520bc4b1","computer","Desktop or Laptop","Mac OS 10.15.7","Chrome 119.0.0.0","1440x900","1440x735",NA,NA,0,"Task Introduction and Instructions (re-introduce video and audio)",1,"IJHAGBFCED","Passed AC2","","Spreadsheet1",NA,"","","",NA,"5","END",NA,NA,NA,NA,NA,NA,0,NA,NA,NA,NA,"","",NA,"","",NA,"SUPPRF99862"
"1",1701060515665,"27/11/2023 04:48:35",1701042515665,-5,"26/11/2023 18:48:35",151512,7,"task-w25u",NA,33234155,9839002,NA,"complete",NA,"65641c1b6e267d7a7ead75f0","computer","Desktop or Laptop","Mac OS 10.15.7","Chrome 119.0.0.0","1512x982","1512x858",NA,NA,0,"Task Introduction and Instructions (re-introduce video and audio)",1,"BCADJEIFHG","Passed AC2","","Spreadsheet1",NA,"","","",NA,"5","BEGIN",NA,NA,NA,NA,NA,NA,0,NA,NA,NA,NA,"","",NA,"","",NA,"SUPPRF53834"
"2",1701060519744,"27/11/2023 04:48:39",1701042519744,-5,"26/11/2023 18:48:39",151512,7,"task-w25u",NA,33234155,9839002,NA,"complete",NA,"65641c1b6e267d7a7ead75f0","computer","Desktop or Laptop","Mac OS 10.15.7","Chrome 119.0.0.0","1512x982","1512x858",NA,NA,0,"Task Introduction and Instructions (re-introduce video and audio)",1,"BCADJEIFHG","Passed AC2","","Spreadsheet1",1,"Task Instructions","Screen 1","anr7sn",1,"continue","",3424.1620002861,3416.53,3424.1620002861,3424.1620002861,3416.53,3424.1620002861,1,3424.1620002861,0,0,NA,"Click To Continue","Continue Button",2,"object-1944","Task Instructions",NA,"SUPPRF53834"
"3",1701060532169,"27/11/2023 04:48:52",1701042532169,-5,"26/11/2023 18:48:52",151512,7,"task-w25u",NA,33234155,9839002,NA,"complete",NA,"65641c1b6e267d7a7ead75f0","computer","Desktop or Laptop","Mac OS 10.15.7","Chrome 119.0.0.0","1512x982","1512x858",NA,NA,0,"Task Introduction and Instructions (re-introduce video and audio)",1,"BCADJEIFHG","Passed AC2","","Spreadsheet1",1,"Task Instructions","Screen 2","ce2tc8",2,"continue","",12425.104,12416.771,12425.104,12425.104,12416.771,12425.104,1,12425.104,0,0,NA,"Click To Continue","Continue Button",2,"object-7","Task Instructions",NA,"SUPPRF53834"
"4",1701060538976,"27/11/2023 04:48:58",1701042538976,-5,"26/11/2023 18:48:58",151512,7,"task-w25u",NA,33234155,9839002,NA,"complete",NA,"65641c1b6e267d7a7ead75f0","computer","Desktop or Laptop","Mac OS 10.15.7","Chrome 119.0.0.0","1512x982","1512x858",NA,NA,0,"Task Introduction and Instructions (re-introduce video and audio)",1,"BCADJEIFHG","Passed AC2","","Spreadsheet1",1,"Task Instructions","Screen 3","1qtc8v",3,"continue","",6823.56100009537,6816.394,6823.56100009537,6823.56100009537,6816.394,6823.56100009537,1,6823.56100009537,0,0,NA,"Click To Continue","Continue Button",2,"object-52","Task Instructions",NA,"SUPPRF53834"
