"Event.Index","UTC.Timestamp","UTC.Date.and.Time","Local.Timestamp","Local.Timezone","Local.Date.and.Time","Experiment.ID","Experiment.Version","Tree.Node.Key","Repeat.Key","Schedule.ID","Participant.Private.ID","Participant.Starting.Group","Participant.Status","Participant.Completion.Code","Participant.External.Session.ID","Participant.Device.Type","Participant.Device","Participant.OS","Participant.Browser","Participant.Monitor.Size","Participant.Viewport.Size","Checkpoint","Room.ID","Room.Order","Task.Name","Task.Version","order.ot79","branch.g31k","branch.5gtn","Spreadsheet","Trial.Number","Display","Screen","Screen.ID","Screen.Counter","Response.Type","Response","Onset.Time","Clock.Time","Reaction.Time","Absolute.Onset.Time","Absolute.Clock.Time","Absolute.Reaction.Time","Correct","Response.Onset","Response.Duration","Proportion","Tag","Component.Name","Object.Name","Object.Number","Object.ID","Spreadsheet..display","Manipulation..Spreadsheet","Random_ID"
"1",1706636888846,"30/01/2024 17:48:08",1706636888846,0,"30/01/2024 17:48:08",160285,9,"task-v7r7",NA,34620736,10236980,NA,"rejected - time limit reached",NA,"65b93341b6198f15a1f527da","computer","Desktop or Laptop","Windows 10","Chrome 120.0.0.0","1366x768","1366x645",NA,NA,0,"Task Introduction and Instructions (re-introduce video and audio) (Clone)",3,"ABJCIDHEGF","Passed AC2","","Spreadsheet1",NA,"","","",NA,"5","BEGIN",NA,NA,NA,NA,NA,NA,0,NA,NA,NA,NA,"","",NA,"","",NA,"SUPPRF05583"
"2",1706636892824,"30/01/2024 17:48:12",1706636892824,0,"30/01/2024 17:48:12",160285,9,"task-v7r7",NA,34620736,10236980,NA,"rejected - time limit reached",NA,"65b93341b6198f15a1f527da","computer","Desktop or Laptop","Windows 10","Chrome 120.0.0.0","1366x768","1366x645",NA,NA,0,"Task Introduction and Instructions (re-introduce video and audio) (Clone)",3,"ABJCIDHEGF","Passed AC2","","Spreadsheet1",1,"Task Instructions","Screen 1","anr7sn",1,"continue","",3688.3,3682.7,3688.3,3688.3,3682.7,3688.3,1,3688.3,0,0,NA,"Click To Continue","Continue Button",3,"object-60","Task Instructions",NA,"SUPPRF05583"
"3",1706636896210,"30/01/2024 17:48:16",1706636896210,0,"30/01/2024 17:48:16",160285,9,"task-v7r7",NA,34620736,10236980,NA,"rejected - time limit reached",NA,"65b93341b6198f15a1f527da","computer","Desktop or Laptop","Windows 10","Chrome 120.0.0.0","1366x768","1366x645",NA,NA,0,"Task Introduction and Instructions (re-introduce video and audio) (Clone)",3,"ABJCIDHEGF","Passed AC2","","Spreadsheet1",1,"Task Instructions","Screen 2","ce2tc8",2,"continue","",3391.50000009537,3382.6,3391.50000009537,3391.50000009537,3382.6,3391.50000009537,1,3391.50000009537,0,0,NA,"Click To Continue","Continue Button",3,"object-59","Task Instructions",NA,"SUPPRF05583"
"4",1706636902371,"30/01/2024 17:48:22",1706636902371,0,"30/01/2024 17:48:22",160285,9,"task-v7r7",NA,34620736,10236980,NA,"rejected - time limit reached",NA,"65b93341b6198f15a1f527da","computer","Desktop or Laptop","Windows 10","Chrome 120.0.0.0","1366x768","1366x645",NA,NA,0,"Task Introduction and Instructions (re-introduce video and audio) (Clone)",3,"ABJCIDHEGF","Passed AC2","","Spreadsheet1",1,"Task Instructions","Screen 3","1qtc8v",3,"continue","",6170.70000004768,6166.6,6170.70000004768,6170.70000004768,6166.6,6170.70000004768,1,6170.70000004768,0,0,NA,"Click To Continue","Continue Button",2,"object-2983","Task Instructions",NA,"SUPPRF05583"
"5",1706636909123,"30/01/2024 17:48:29",1706636909123,0,"30/01/2024 17:48:29",160285,9,"task-v7r7",NA,34620736,10236980,NA,"rejected - time limit reached",NA,"65b93341b6198f15a1f527da","computer","Desktop or Laptop","Windows 10","Chrome 120.0.0.0","1366x768","1366x645",NA,NA,0,"Task Introduction and Instructions (re-introduce video and audio) (Clone)",3,"ABJCIDHEGF","Passed AC2","","Spreadsheet1",1,"Task Instructions","Screen 12","1a4vu2",4,"continue","",6747.5,6730.8,6747.5,6747.5,6730.8,6747.5,1,6747.5,0,0,NA,"Click To Continue","Continue Button",2,"object-2466","Task Instructions",NA,"SUPPRF05583"
"6",1706636916084,"30/01/2024 17:48:36",1706636916084,0,"30/01/2024 17:48:36",160285,9,"task-v7r7",NA,34620736,10236980,NA,"rejected - time limit reached",NA,"65b93341b6198f15a1f527da","computer","Desktop or Laptop","Windows 10","Chrome 120.0.0.0","1366x768","1366x645",NA,NA,0,"Task Introduction and Instructions (re-introduce video and audio) (Clone)",3,"ABJCIDHEGF","Passed AC2","","Spreadsheet1",1,"Task Instructions","Screen 13","q9vwda",5,"continue","",6981.8,6965.3,6981.8,6981.8,6965.3,6981.8,1,6981.8,0,0,NA,"Click To Continue","Continue Button",2,"object-2989","Task Instructions",NA,"SUPPRF05583"
"7",1706636919402,"30/01/2024 17:48:39",1706636919402,0,"30/01/2024 17:48:39",160285,9,"task-v7r7",NA,34620736,10236980,NA,"rejected - time limit reached",NA,"65b93341b6198f15a1f527da","computer","Desktop or Laptop","Windows 10","Chrome 120.0.0.0","1366x768","1366x645",NA,NA,0,"Task Introduction and Instructions (re-introduce video and audio) (Clone)",3,"ABJCIDHEGF","Passed AC2","","Spreadsheet1",1,"Task Instructions","Screen 11","oyulb7",6,"continue","",3338.70000009537,3333.7,3338.70000009537,3338.70000009537,3333.7,3338.70000009537,1,3338.70000009537,0,0,NA,"Click To Continue","Continue Button",2,"object-52","Task Instructions",NA,"SUPPRF05583"
"8",1706636922897,"30/01/2024 17:48:42",1706636922897,0,"30/01/2024 17:48:42",160285,9,"task-v7r7",NA,34620736,10236980,NA,"rejected - time limit reached",NA,"65b93341b6198f15a1f527da","computer","Desktop or Laptop","Windows 10","Chrome 120.0.0.0","1366x768","1366x645",NA,NA,0,"Task Introduction and Instructions (re-introduce video and audio) (Clone)",3,"ABJCIDHEGF","Passed AC2","","Spreadsheet1",1,"Task Instructions","Screen 4","spepx9",7,"continue","",3498.1,3481.5,3498.1,3498.1,3481.5,3498.1,1,3498.1,0,0,NA,"Click To Continue","Continue Button",2,"object-9","Task Instructions",NA,"SUPPRF05583"
"9",1706636925548,"30/01/2024 17:48:45",1706636925548,0,"30/01/2024 17:48:45",160285,9,"task-v7r7",NA,34620736,10236980,NA,"rejected - time limit reached",NA,"65b93341b6198f15a1f527da","computer","Desktop or Laptop","Windows 10","Chrome 120.0.0.0","1366x768","1366x645",NA,NA,0,"Task Introduction and Instructions (re-introduce video and audio) (Clone)",3,"ABJCIDHEGF","Passed AC2","","Spreadsheet1",1,"Task Instructions","Screen 5","8nvnao",8,"continue","",2666.39999999999,2649.7,2666.39999999999,2666.39999999999,2649.7,2666.39999999999,1,2666.39999999999,0,0,NA,"Click To Continue","Continue Button",2,"object-44","Task Instructions",NA,"SUPPRF05583"
"10",1706636925556,"30/01/2024 17:48:45",1706636925556,0,"30/01/2024 17:48:45",160285,9,"task-v7r7",NA,34620736,10236980,NA,"rejected - time limit reached",NA,"65b93341b6198f15a1f527da","computer","Desktop or Laptop","Windows 10","Chrome 120.0.0.0","1366x768","1366x645",NA,NA,0,"Task Introduction and Instructions (re-introduce video and audio) (Clone)",3,"ABJCIDHEGF","Passed AC2","","Spreadsheet1",NA,"","","",NA,"5","END",NA,NA,NA,NA,NA,NA,0,NA,NA,NA,NA,"","",NA,"","",NA,"SUPPRF05583"
"1",1706637791618,"30/01/2024 18:03:11",1706637791618,0,"30/01/2024 18:03:11",160285,9,"task-v7r7",NA,34621143,10237064,NA,"complete",NA,"65b934a1ca7bf6ac7d3875bf","computer","Desktop or Laptop","Windows 10","Chrome 120.0.0.0","1280x720","1280x632",NA,NA,0,"Task Introduction and Instructions (re-introduce video and audio) (Clone)",3,"CDBEAFJGIH","Passed AC2","","Spreadsheet1",NA,"","","",NA,"5","BEGIN",NA,NA,NA,NA,NA,NA,0,NA,NA,NA,NA,"","",NA,"","",NA,"SUPPRF02465"
"2",1706637795895,"30/01/2024 18:03:15",1706637795895,0,"30/01/2024 18:03:15",160285,9,"task-v7r7",NA,34621143,10237064,NA,"complete",NA,"65b934a1ca7bf6ac7d3875bf","computer","Desktop or Laptop","Windows 10","Chrome 120.0.0.0","1280x720","1280x632",NA,NA,0,"Task Introduction and Instructions (re-introduce video and audio) (Clone)",3,"CDBEAFJGIH","Passed AC2","","Spreadsheet1",1,"Task Instructions","Screen 1","anr7sn",1,"continue","",4220.10000000298,4213.4,4220.10000000298,4220.10000000298,4213.4,4220.10000000298,1,4220.10000000298,0,0,NA,"Click To Continue","Continue Button",3,"object-60","Task Instructions",NA,"SUPPRF02465"
"3",1706637862477,"30/01/2024 18:04:22",1706637862477,0,"30/01/2024 18:04:22",160285,9,"task-v7r7",NA,34621143,10237064,NA,"complete",NA,"65b934a1ca7bf6ac7d3875bf","computer","Desktop or Laptop","Windows 10","Chrome 120.0.0.0","1280x720","1280x632",NA,NA,0,"Task Introduction and Instructions (re-introduce video and audio) (Clone)",3,"CDBEAFJGIH","Passed AC2","","Spreadsheet1",1,"Task Instructions","Screen 2","ce2tc8",2,"continue","",66588.1000000015,66578.7,66588.1000000015,66588.1000000015,66578.7,66588.1000000015,1,66588.1000000015,0,0,NA,"Click To Continue","Continue Button",3,"object-59","Task Instructions",NA,"SUPPRF02465"
"4",1706637874686,"30/01/2024 18:04:34",1706637874686,0,"30/01/2024 18:04:34",160285,9,"task-v7r7",NA,34621143,10237064,NA,"complete",NA,"65b934a1ca7bf6ac7d3875bf","computer","Desktop or Laptop","Windows 10","Chrome 120.0.0.0","1280x720","1280x632",NA,NA,0,"Task Introduction and Instructions (re-introduce video and audio) (Clone)",3,"CDBEAFJGIH","Passed AC2","","Spreadsheet1",1,"Task Instructions","Screen 3","1qtc8v",3,"continue","",12219.200000006,12206.1,12219.200000006,12219.200000006,12206.1,12219.200000006,1,12219.200000006,0,0,NA,"Click To Continue","Continue Button",2,"object-2983","Task Instructions",NA,"SUPPRF02465"
"5",1706637882484,"30/01/2024 18:04:42",1706637882484,0,"30/01/2024 18:04:42",160285,9,"task-v7r7",NA,34621143,10237064,NA,"complete",NA,"65b934a1ca7bf6ac7d3875bf","computer","Desktop or Laptop","Windows 10","Chrome 120.0.0.0","1280x720","1280x632",NA,NA,0,"Task Introduction and Instructions (re-introduce video and audio) (Clone)",3,"CDBEAFJGIH","Passed AC2","","Spreadsheet1",1,"Task Instructions","Screen 12","1a4vu2",4,"continue","",7810.00000000447,7793.89999999999,7810.00000000447,7810.00000000447,7793.89999999999,7810.00000000447,1,7810.00000000447,0,0,NA,"Click To Continue","Continue Button",2,"object-2466","Task Instructions",NA,"SUPPRF02465"
"6",1706637888125,"30/01/2024 18:04:48",1706637888125,0,"30/01/2024 18:04:48",160285,9,"task-v7r7",NA,34621143,10237064,NA,"complete",NA,"65b934a1ca7bf6ac7d3875bf","computer","Desktop or Laptop","Windows 10","Chrome 120.0.0.0","1280x720","1280x632",NA,NA,0,"Task Introduction and Instructions (re-introduce video and audio) (Clone)",3,"CDBEAFJGIH","Passed AC2","","Spreadsheet1",1,"Task Instructions","Screen 13","q9vwda",5,"continue","",5658.40000000149,5645.3,5658.40000000149,5658.40000000149,5645.3,5658.40000000149,1,5658.40000000149,0,0,NA,"Click To Continue","Continue Button",2,"object-2989","Task Instructions",NA,"SUPPRF02465"
"7",1706637891217,"30/01/2024 18:04:51",1706637891217,0,"30/01/2024 18:04:51",160285,9,"task-v7r7",NA,34621143,10237064,NA,"complete",NA,"65b934a1ca7bf6ac7d3875bf","computer","Desktop or Laptop","Windows 10","Chrome 120.0.0.0","1280x720","1280x632",NA,NA,0,"Task Introduction and Instructions (re-introduce video and audio) (Clone)",3,"CDBEAFJGIH","Passed AC2","","Spreadsheet1",1,"Task Instructions","Screen 11","oyulb7",6,"continue","",3104.30000000447,3097.2,3104.30000000447,3104.30000000447,3097.2,3104.30000000447,1,3104.30000000447,0,0,NA,"Click To Continue","Continue Button",2,"object-52","Task Instructions",NA,"SUPPRF02465"
"8",1706637894246,"30/01/2024 18:04:54",1706637894246,0,"30/01/2024 18:04:54",160285,9,"task-v7r7",NA,34621143,10237064,NA,"complete",NA,"65b934a1ca7bf6ac7d3875bf","computer","Desktop or Laptop","Windows 10","Chrome 120.0.0.0","1280x720","1280x632",NA,NA,0,"Task Introduction and Instructions (re-introduce video and audio) (Clone)",3,"CDBEAFJGIH","Passed AC2","","Spreadsheet1",1,"Task Instructions","Screen 4","spepx9",7,"continue","",3036.3,3031.3,3036.3,3036.3,3031.3,3036.3,1,3036.3,0,0,NA,"Click To Continue","Continue Button",2,"object-9","Task Instructions",NA,"SUPPRF02465"
"9",1706637897407,"30/01/2024 18:04:57",1706637897407,0,"30/01/2024 18:04:57",160285,9,"task-v7r7",NA,34621143,10237064,NA,"complete",NA,"65b934a1ca7bf6ac7d3875bf","computer","Desktop or Laptop","Windows 10","Chrome 120.0.0.0","1280x720","1280x632",NA,NA,0,"Task Introduction and Instructions (re-introduce video and audio) (Clone)",3,"CDBEAFJGIH","Passed AC2","","Spreadsheet1",1,"Task Instructions","Screen 5","8nvnao",8,"continue","",3166.10000000149,3163.89999999999,3166.10000000149,3166.10000000149,3163.89999999999,3166.10000000149,1,3166.10000000149,0,0,NA,"Click To Continue","Continue Button",2,"object-44","Task Instructions",NA,"SUPPRF02465"
"10",1706637897408,"30/01/2024 18:04:57",1706637897408,0,"30/01/2024 18:04:57",160285,9,"task-v7r7",NA,34621143,10237064,NA,"complete",NA,"65b934a1ca7bf6ac7d3875bf","computer","Desktop or Laptop","Windows 10","Chrome 120.0.0.0","1280x720","1280x632",NA,NA,0,"Task Introduction and Instructions (re-introduce video and audio) (Clone)",3,"CDBEAFJGIH","Passed AC2","","Spreadsheet1",NA,"","","",NA,"5","END",NA,NA,NA,NA,NA,NA,0,NA,NA,NA,NA,"","",NA,"","",NA,"SUPPRF02465"
"1",1706637957891,"30/01/2024 18:05:57",1706641557891,1,"30/01/2024 20:05:57",160285,9,"task-v7r7",NA,34621364,10237168,NA,"complete",NA,"65b93679f5c895675cbe6a17","computer","Desktop or Laptop","Windows 10","Chrome 121.0.0.0","1280x720","1280x585",NA,NA,0,"Task Introduction and Instructions (re-introduce video and audio) (Clone)",3,"EFDGCHBIAJ","Passed AC2","","Spreadsheet1",NA,"","","",NA,"5","BEGIN",NA,NA,NA,NA,NA,NA,0,NA,NA,NA,NA,"","",NA,"","",NA,"SUPPRF14713"
"2",1706637966350,"30/01/2024 18:06:06",1706641566350,1,"30/01/2024 20:06:06",160285,9,"task-v7r7",NA,34621364,10237168,NA,"complete",NA,"65b93679f5c895675cbe6a17","computer","Desktop or Laptop","Windows 10","Chrome 121.0.0.0","1280x720","1280x585",NA,NA,0,"Task Introduction and Instructions (re-introduce video and audio) (Clone)",3,"EFDGCHBIAJ","Passed AC2","","Spreadsheet1",1,"Task Instructions","Screen 1","anr7sn",1,"continue","",7591.89999999404,7585,7591.89999999404,7591.89999999404,7585,7591.89999999404,1,7591.89999999404,0,0,NA,"Click To Continue","Continue Button",3,"object-60","Task Instructions",NA,"SUPPRF14713"
"3",1706637978434,"30/01/2024 18:06:18",1706641578434,1,"30/01/2024 20:06:18",160285,9,"task-v7r7",NA,34621364,10237168,NA,"complete",NA,"65b93679f5c895675cbe6a17","computer","Desktop or Laptop","Windows 10","Chrome 121.0.0.0","1280x720","1280x585",NA,NA,0,"Task Introduction and Instructions (re-introduce video and audio) (Clone)",3,"EFDGCHBIAJ","Passed AC2","","Spreadsheet1",1,"Task Instructions","Screen 2","ce2tc8",2,"continue","",12091.8,12087,12091.8,12091.8,12087,12091.8,1,12091.8,0,0,NA,"Click To Continue","Continue Button",3,"object-59","Task Instructions",NA,"SUPPRF14713"
"4",1706637987184,"30/01/2024 18:06:27",1706641587184,1,"30/01/2024 20:06:27",160285,9,"task-v7r7",NA,34621364,10237168,NA,"complete",NA,"65b93679f5c895675cbe6a17","computer","Desktop or Laptop","Windows 10","Chrome 121.0.0.0","1280x720","1280x585",NA,NA,0,"Task Introduction and Instructions (re-introduce video and audio) (Clone)",3,"EFDGCHBIAJ","Passed AC2","","Spreadsheet1",1,"Task Instructions","Screen 3","1qtc8v",3,"continue","",8754.59999999702,8751.9,8754.59999999702,8754.59999999702,8751.9,8754.59999999702,1,8754.59999999702,0,0,NA,"Click To Continue","Continue Button",2,"object-2983","Task Instructions",NA,"SUPPRF14713"
"5",1706637992160,"30/01/2024 18:06:32",1706641592160,1,"30/01/2024 20:06:32",160285,9,"task-v7r7",NA,34621364,10237168,NA,"complete",NA,"65b93679f5c895675cbe6a17","computer","Desktop or Laptop","Windows 10","Chrome 121.0.0.0","1280x720","1280x585",NA,NA,0,"Task Introduction and Instructions (re-introduce video and audio) (Clone)",3,"EFDGCHBIAJ","Passed AC2","","Spreadsheet1",1,"Task Instructions","Screen 12","1a4vu2",4,"continue","",4978.59999998808,4968,4978.59999998808,4978.59999998808,4968,4978.59999998808,1,4978.59999998808,0,0,NA,"Click To Continue","Continue Button",2,"object-2466","Task Instructions",NA,"SUPPRF14713"
"6",1706638000093,"30/01/2024 18:06:40",1706641600093,1,"30/01/2024 20:06:40",160285,9,"task-v7r7",NA,34621364,10237168,NA,"complete",NA,"65b93679f5c895675cbe6a17","computer","Desktop or Laptop","Windows 10","Chrome 121.0.0.0","1280x720","1280x585",NA,NA,0,"Task Introduction and Instructions (re-introduce video and audio) (Clone)",3,"EFDGCHBIAJ","Passed AC2","","Spreadsheet1",1,"Task Instructions","Screen 13","q9vwda",5,"continue","",7943.79999999106,7935.9,7943.79999999106,7943.79999999106,7935.9,7943.79999999106,1,7943.79999999106,0,0,NA,"Click To Continue","Continue Button",2,"object-2989","Task Instructions",NA,"SUPPRF14713"
"7",1706638005890,"30/01/2024 18:06:45",1706641605890,1,"30/01/2024 20:06:45",160285,9,"task-v7r7",NA,34621364,10237168,NA,"complete",NA,"65b93679f5c895675cbe6a17","computer","Desktop or Laptop","Windows 10","Chrome 121.0.0.0","1280x720","1280x585",NA,NA,0,"Task Introduction and Instructions (re-introduce video and audio) (Clone)",3,"EFDGCHBIAJ","Passed AC2","","Spreadsheet1",1,"Task Instructions","Screen 11","oyulb7",6,"continue","",5804.39999999106,5801.2,5804.39999999106,5804.39999999106,5801.2,5804.39999999106,1,5804.39999999106,0,0,NA,"Click To Continue","Continue Button",2,"object-52","Task Instructions",NA,"SUPPRF14713"
"8",1706638019999,"30/01/2024 18:06:59",1706641619999,1,"30/01/2024 20:06:59",160285,9,"task-v7r7",NA,34621364,10237168,NA,"complete",NA,"65b93679f5c895675cbe6a17","computer","Desktop or Laptop","Windows 10","Chrome 121.0.0.0","1280x720","1280x585",NA,NA,0,"Task Introduction and Instructions (re-introduce video and audio) (Clone)",3,"EFDGCHBIAJ","Passed AC2","","Spreadsheet1",1,"Task Instructions","Screen 4","spepx9",7,"continue","",14111.3,14103.7,14111.3,14111.3,14103.7,14111.3,1,14111.3,0,0,NA,"Click To Continue","Continue Button",2,"object-9","Task Instructions",NA,"SUPPRF14713"
"9",1706638027515,"30/01/2024 18:07:07",1706641627515,1,"30/01/2024 20:07:07",160285,9,"task-v7r7",NA,34621364,10237168,NA,"complete",NA,"65b93679f5c895675cbe6a17","computer","Desktop or Laptop","Windows 10","Chrome 121.0.0.0","1280x720","1280x585",NA,NA,0,"Task Introduction and Instructions (re-introduce video and audio) (Clone)",3,"EFDGCHBIAJ","Passed AC2","","Spreadsheet1",1,"Task Instructions","Screen 5","8nvnao",8,"response","bot",7523.60000000001,7518.70000000001,7523.60000000001,7523.60000000001,7518.70000000001,7523.60000000001,1,7523.60000000001,0,0,NA,"Click Response","Response",5,"object-47","Task Instructions",NA,"SUPPRF14713"
"10",1706638027517,"30/01/2024 18:07:07",1706641627517,1,"30/01/2024 20:07:07",160285,9,"task-v7r7",NA,34621364,10237168,NA,"complete",NA,"65b93679f5c895675cbe6a17","computer","Desktop or Laptop","Windows 10","Chrome 121.0.0.0","1280x720","1280x585",NA,NA,0,"Task Introduction and Instructions (re-introduce video and audio) (Clone)",3,"EFDGCHBIAJ","Passed AC2","","Spreadsheet1",NA,"","","",NA,"5","END",NA,NA,NA,NA,NA,NA,0,NA,NA,NA,NA,"","",NA,"","",NA,"SUPPRF14713"
"1",1706638617763,"30/01/2024 18:16:57",1706638617763,0,"30/01/2024 18:16:57",160285,9,"task-v7r7",NA,34621810,10237233,NA,"rejected - time limit reached",NA,"65b9385c8f9fe441709b5b97","computer","Desktop or Laptop","Windows 10","Chrome 120.0.0.0","1280x720","1280x559",NA,NA,0,"Task Introduction and Instructions (re-introduce video and audio) (Clone)",3,"FGEHDICJBA","Passed AC2","","Spreadsheet1",NA,"","","",NA,"5","BEGIN",NA,NA,NA,NA,NA,NA,0,NA,NA,NA,NA,"","",NA,"","",NA,"SUPPRF27286"
"2",1706638650730,"30/01/2024 18:17:30",1706638650730,0,"30/01/2024 18:17:30",160285,9,"task-v7r7",NA,34621810,10237233,NA,"rejected - time limit reached",NA,"65b9385c8f9fe441709b5b97","computer","Desktop or Laptop","Windows 10","Chrome 120.0.0.0","1280x720","1280x559",NA,NA,0,"Task Introduction and Instructions (re-introduce video and audio) (Clone)",3,"FGEHDICJBA","Passed AC2","","Spreadsheet1",1,"Task Instructions","Screen 1","anr7sn",1,"continue","",32900.200000006,32884.1,32900.200000006,32900.200000006,32884.1,32900.200000006,1,32900.200000006,0,0,NA,"Click To Continue","Continue Button",3,"object-60","Task Instructions",NA,"SUPPRF27286"
"3",1706638666016,"30/01/2024 18:17:46",1706638666016,0,"30/01/2024 18:17:46",160285,9,"task-v7r7",NA,34621810,10237233,NA,"rejected - time limit reached",NA,"65b9385c8f9fe441709b5b97","computer","Desktop or Laptop","Windows 10","Chrome 120.0.0.0","1280x720","1280x559",NA,NA,0,"Task Introduction and Instructions (re-introduce video and audio) (Clone)",3,"FGEHDICJBA","Passed AC2","","Spreadsheet1",1,"Task Instructions","Screen 2","ce2tc8",2,"continue","",15300.1,15283.4,15300.1,15300.1,15283.4,15300.1,1,15300.1,0,0,NA,"Click To Continue","Continue Button",3,"object-59","Task Instructions",NA,"SUPPRF27286"
"4",1706638674918,"30/01/2024 18:17:54",1706638674918,0,"30/01/2024 18:17:54",160285,9,"task-v7r7",NA,34621810,10237233,NA,"rejected - time limit reached",NA,"65b9385c8f9fe441709b5b97","computer","Desktop or Laptop","Windows 10","Chrome 120.0.0.0","1280x720","1280x559",NA,NA,0,"Task Introduction and Instructions (re-introduce video and audio) (Clone)",3,"FGEHDICJBA","Passed AC2","","Spreadsheet1",1,"Task Instructions","Screen 3","1qtc8v",3,"continue","",8921.70000000596,8916.7,8921.70000000596,8921.70000000596,8916.7,8921.70000000596,1,8921.70000000596,0,0,NA,"Click To Continue","Continue Button",2,"object-2983","Task Instructions",NA,"SUPPRF27286"
"5",1706638679629,"30/01/2024 18:17:59",1706638679629,0,"30/01/2024 18:17:59",160285,9,"task-v7r7",NA,34621810,10237233,NA,"rejected - time limit reached",NA,"65b9385c8f9fe441709b5b97","computer","Desktop or Laptop","Windows 10","Chrome 120.0.0.0","1280x720","1280x559",NA,NA,0,"Task Introduction and Instructions (re-introduce video and audio) (Clone)",3,"FGEHDICJBA","Passed AC2","","Spreadsheet1",1,"Task Instructions","Screen 12","1a4vu2",4,"continue","",4716.1,4700.4,4716.1,4716.1,4700.4,4716.1,1,4716.1,0,0,NA,"Click To Continue","Continue Button",2,"object-2466","Task Instructions",NA,"SUPPRF27286"
"6",1706638686664,"30/01/2024 18:18:06",1706638686664,0,"30/01/2024 18:18:06",160285,9,"task-v7r7",NA,34621810,10237233,NA,"rejected - time limit reached",NA,"65b9385c8f9fe441709b5b97","computer","Desktop or Laptop","Windows 10","Chrome 120.0.0.0","1280x720","1280x559",NA,NA,0,"Task Introduction and Instructions (re-introduce video and audio) (Clone)",3,"FGEHDICJBA","Passed AC2","","Spreadsheet1",1,"Task Instructions","Screen 13","q9vwda",5,"continue","",7050.2,7033.5,7050.2,7050.2,7033.5,7050.2,1,7050.2,0,0,NA,"Click To Continue","Continue Button",2,"object-2989","Task Instructions",NA,"SUPPRF27286"
"7",1706638690185,"30/01/2024 18:18:10",1706638690185,0,"30/01/2024 18:18:10",160285,9,"task-v7r7",NA,34621810,10237233,NA,"rejected - time limit reached",NA,"65b9385c8f9fe441709b5b97","computer","Desktop or Laptop","Windows 10","Chrome 120.0.0.0","1280x720","1280x559",NA,NA,0,"Task Introduction and Instructions (re-introduce video and audio) (Clone)",3,"FGEHDICJBA","Passed AC2","","Spreadsheet1",1,"Task Instructions","Screen 11","oyulb7",6,"continue","",3537.7,3533.09999999999,3537.7,3537.7,3533.09999999999,3537.7,1,3537.7,0,0,NA,"Click To Continue","Continue Button",2,"object-52","Task Instructions",NA,"SUPPRF27286"
"8",1706638693621,"30/01/2024 18:18:13",1706638693621,0,"30/01/2024 18:18:13",160285,9,"task-v7r7",NA,34621810,10237233,NA,"rejected - time limit reached",NA,"65b9385c8f9fe441709b5b97","computer","Desktop or Laptop","Windows 10","Chrome 120.0.0.0","1280x720","1280x559",NA,NA,0,"Task Introduction and Instructions (re-introduce video and audio) (Clone)",3,"FGEHDICJBA","Passed AC2","","Spreadsheet1",1,"Task Instructions","Screen 4","spepx9",7,"continue","",3440.90000001193,3433.40000000001,3440.90000001193,3440.90000001193,3433.40000000001,3440.90000001193,1,3440.90000001193,0,0,NA,"Click To Continue","Continue Button",2,"object-9","Task Instructions",NA,"SUPPRF27286"
"9",1706638696794,"30/01/2024 18:18:16",1706638696794,0,"30/01/2024 18:18:16",160285,9,"task-v7r7",NA,34621810,10237233,NA,"rejected - time limit reached",NA,"65b9385c8f9fe441709b5b97","computer","Desktop or Laptop","Windows 10","Chrome 120.0.0.0","1280x720","1280x559",NA,NA,0,"Task Introduction and Instructions (re-introduce video and audio) (Clone)",3,"FGEHDICJBA","Passed AC2","","Spreadsheet1",1,"Task Instructions","Screen 5","8nvnao",8,"continue","",3180.89999998808,3166.89999999999,3180.89999998808,3180.89999998808,3166.89999999999,3180.89999998808,1,3180.89999998808,0,0,NA,"Click To Continue","Continue Button",2,"object-44","Task Instructions",NA,"SUPPRF27286"
"10",1706638696801,"30/01/2024 18:18:16",1706638696801,0,"30/01/2024 18:18:16",160285,9,"task-v7r7",NA,34621810,10237233,NA,"rejected - time limit reached",NA,"65b9385c8f9fe441709b5b97","computer","Desktop or Laptop","Windows 10","Chrome 120.0.0.0","1280x720","1280x559",NA,NA,0,"Task Introduction and Instructions (re-introduce video and audio) (Clone)",3,"FGEHDICJBA","Passed AC2","","Spreadsheet1",NA,"","","",NA,"5","END",NA,NA,NA,NA,NA,NA,0,NA,NA,NA,NA,"","",NA,"","",NA,"SUPPRF27286"
"1",1706641709555,"30/01/2024 19:08:29",1706645309555,1,"30/01/2024 21:08:29",160285,9,"task-v7r7",NA,34623466,10237469,NA,"complete",NA,"65b93c284fe43c33e97b9b59","computer","Desktop or Laptop","Windows 10","Chrome 120.0.0.0","1600x900","1600x811",NA,NA,0,"Task Introduction and Instructions (re-introduce video and audio) (Clone)",3,"BCADJEIFHG","Passed AC2","","Spreadsheet1",NA,"","","",NA,"5","BEGIN",NA,NA,NA,NA,NA,NA,0,NA,NA,NA,NA,"","",NA,"","",NA,"SUPPRF18180"
"2",1706641717136,"30/01/2024 19:08:37",1706645317136,1,"30/01/2024 21:08:37",160285,9,"task-v7r7",NA,34623466,10237469,NA,"complete",NA,"65b93c284fe43c33e97b9b59","computer","Desktop or Laptop","Windows 10","Chrome 120.0.0.0","1600x900","1600x811",NA,NA,0,"Task Introduction and Instructions (re-introduce video and audio) (Clone)",3,"BCADJEIFHG","Passed AC2","","Spreadsheet1",1,"Task Instructions","Screen 1","anr7sn",1,"continue","",6564.6,6549.2,6564.6,6564.6,6549.2,6564.6,1,6564.6,0,0,NA,"Click To Continue","Continue Button",3,"object-60","Task Instructions",NA,"SUPPRF18180"
"3",1706641751509,"30/01/2024 19:09:11",1706645351509,1,"30/01/2024 21:09:11",160285,9,"task-v7r7",NA,34623466,10237469,NA,"complete",NA,"65b93c284fe43c33e97b9b59","computer","Desktop or Laptop","Windows 10","Chrome 120.0.0.0","1600x900","1600x811",NA,NA,0,"Task Introduction and Instructions (re-introduce video and audio) (Clone)",3,"BCADJEIFHG","Passed AC2","","Spreadsheet1",1,"Task Instructions","Screen 2","ce2tc8",2,"continue","",34388.5999998093,34379.6,34388.5999998093,34388.5999998093,34379.6,34388.5999998093,1,34388.5999998093,0,0,NA,"Click To Continue","Continue Button",3,"object-59","Task Instructions",NA,"SUPPRF18180"
"4",1706641774195,"30/01/2024 19:09:34",1706645374195,1,"30/01/2024 21:09:34",160285,9,"task-v7r7",NA,34623466,10237469,NA,"complete",NA,"65b93c284fe43c33e97b9b59","computer","Desktop or Laptop","Windows 10","Chrome 120.0.0.0","1600x900","1600x811",NA,NA,0,"Task Introduction and Instructions (re-introduce video and audio) (Clone)",3,"BCADJEIFHG","Passed AC2","","Spreadsheet1",1,"Task Instructions","Screen 3","1qtc8v",3,"continue","",22695.3,22680.8,22695.3,22695.3,22680.8,22695.3,1,22695.3,0,0,NA,"Click To Continue","Continue Button",2,"object-2983","Task Instructions",NA,"SUPPRF18180"
"5",1706641795833,"30/01/2024 19:09:55",1706645395833,1,"30/01/2024 21:09:55",160285,9,"task-v7r7",NA,34623466,10237469,NA,"complete",NA,"65b93c284fe43c33e97b9b59","computer","Desktop or Laptop","Windows 10","Chrome 120.0.0.0","1600x900","1600x811",NA,NA,0,"Task Introduction and Instructions (re-introduce video and audio) (Clone)",3,"BCADJEIFHG","Passed AC2","","Spreadsheet1",1,"Task Instructions","Screen 12","1a4vu2",4,"continue","",21652.0999999046,21647.6,21652.0999999046,21652.0999999046,21647.6,21652.0999999046,1,21652.0999999046,0,0,NA,"Click To Continue","Continue Button",2,"object-2466","Task Instructions",NA,"SUPPRF18180"
"6",1706641814136,"30/01/2024 19:10:14",1706645414136,1,"30/01/2024 21:10:14",160285,9,"task-v7r7",NA,34623466,10237469,NA,"complete",NA,"65b93c284fe43c33e97b9b59","computer","Desktop or Laptop","Windows 10","Chrome 120.0.0.0","1600x900","1600x811",NA,NA,0,"Task Introduction and Instructions (re-introduce video and audio) (Clone)",3,"BCADJEIFHG","Passed AC2","","Spreadsheet1",1,"Task Instructions","Screen 13","q9vwda",5,"continue","",18307.9,18298.1,18307.9,18307.9,18298.1,18307.9,1,18307.9,0,0,NA,"Click To Continue","Continue Button",2,"object-2989","Task Instructions",NA,"SUPPRF18180"
"7",1706641820024,"30/01/2024 19:10:20",1706645420024,1,"30/01/2024 21:10:20",160285,9,"task-v7r7",NA,34623466,10237469,NA,"complete",NA,"65b93c284fe43c33e97b9b59","computer","Desktop or Laptop","Windows 10","Chrome 120.0.0.0","1600x900","1600x811",NA,NA,0,"Task Introduction and Instructions (re-introduce video and audio) (Clone)",3,"BCADJEIFHG","Passed AC2","","Spreadsheet1",1,"Task Instructions","Screen 11","oyulb7",6,"continue","",5897.39999990464,5882.60000000001,5897.39999990464,5897.39999990464,5882.60000000001,5897.39999990464,1,5897.39999990464,0,0,NA,"Click To Continue","Continue Button",2,"object-52","Task Instructions",NA,"SUPPRF18180"
"8",1706641833295,"30/01/2024 19:10:33",1706645433295,1,"30/01/2024 21:10:33",160285,9,"task-v7r7",NA,34623466,10237469,NA,"complete",NA,"65b93c284fe43c33e97b9b59","computer","Desktop or Laptop","Windows 10","Chrome 120.0.0.0","1600x900","1600x811",NA,NA,0,"Task Introduction and Instructions (re-introduce video and audio) (Clone)",3,"BCADJEIFHG","Passed AC2","","Spreadsheet1",1,"Task Instructions","Screen 4","spepx9",7,"continue","",13286.7999999046,13281.9,13286.7999999046,13286.7999999046,13281.9,13286.7999999046,1,13286.7999999046,0,0,NA,"Click To Continue","Continue Button",2,"object-9","Task Instructions",NA,"SUPPRF18180"
"9",1706641837171,"30/01/2024 19:10:37",1706645437171,1,"30/01/2024 21:10:37",160285,9,"task-v7r7",NA,34623466,10237469,NA,"complete",NA,"65b93c284fe43c33e97b9b59","computer","Desktop or Laptop","Windows 10","Chrome 120.0.0.0","1600x900","1600x811",NA,NA,0,"Task Introduction and Instructions (re-introduce video and audio) (Clone)",3,"BCADJEIFHG","Passed AC2","","Spreadsheet1",1,"Task Instructions","Screen 5","8nvnao",8,"continue","",3879.89999990464,3866.2,3879.89999990464,3879.89999990464,3866.2,3879.89999990464,1,3879.89999990464,0,0,NA,"Click To Continue","Continue Button",2,"object-44","Task Instructions",NA,"SUPPRF18180"
"10",1706641837174,"30/01/2024 19:10:37",1706645437174,1,"30/01/2024 21:10:37",160285,9,"task-v7r7",NA,34623466,10237469,NA,"complete",NA,"65b93c284fe43c33e97b9b59","computer","Desktop or Laptop","Windows 10","Chrome 120.0.0.0","1600x900","1600x811",NA,NA,0,"Task Introduction and Instructions (re-introduce video and audio) (Clone)",3,"BCADJEIFHG","Passed AC2","","Spreadsheet1",NA,"","","",NA,"5","END",NA,NA,NA,NA,NA,NA,0,NA,NA,NA,NA,"","",NA,"","",NA,"SUPPRF18180"
"1",1706640442469,"30/01/2024 18:47:22",1706640442469,0,"30/01/2024 18:47:22",160285,9,"task-v7r7",NA,34622821,10237476,NA,"complete",NA,"65b93c4e140ee61d635ffcb2","computer","Desktop or Laptop","Windows 10","Chrome 120.0.0.0","1280x720","1920x890",NA,NA,0,"Task Introduction and Instructions (re-introduce video and audio) (Clone)",3,"HIGJFAEBDC","Failed AC2","Passed AC1","Spreadsheet1",NA,"","","",NA,"5","BEGIN",NA,NA,NA,NA,NA,NA,0,NA,NA,NA,NA,"","",NA,"","",NA,"SUPPRF74060"
"2",1706640449286,"30/01/2024 18:47:29",1706640449286,0,"30/01/2024 18:47:29",160285,9,"task-v7r7",NA,34622821,10237476,NA,"complete",NA,"65b93c4e140ee61d635ffcb2","computer","Desktop or Laptop","Windows 10","Chrome 120.0.0.0","1280x720","1920x890",NA,NA,0,"Task Introduction and Instructions (re-introduce video and audio) (Clone)",3,"HIGJFAEBDC","Failed AC2","Passed AC1","Spreadsheet1",1,"Task Instructions","Screen 1","anr7sn",1,"continue","",6694.79999998808,6683.7,6694.79999998808,6694.79999998808,6683.7,6694.79999998808,1,6694.79999998808,0,0,NA,"Click To Continue","Continue Button",3,"object-60","Task Instructions",NA,"SUPPRF74060"
"3",1706640461902,"30/01/2024 18:47:41",1706640461902,0,"30/01/2024 18:47:41",160285,9,"task-v7r7",NA,34622821,10237476,NA,"complete",NA,"65b93c4e140ee61d635ffcb2","computer","Desktop or Laptop","Windows 10","Chrome 120.0.0.0","1280x720","1920x890",NA,NA,0,"Task Introduction and Instructions (re-introduce video and audio) (Clone)",3,"HIGJFAEBDC","Failed AC2","Passed AC1","Spreadsheet1",1,"Task Instructions","Screen 2","ce2tc8",2,"continue","",12627.499999994,12616.4,12627.499999994,12627.499999994,12616.4,12627.499999994,1,12627.499999994,0,0,NA,"Click To Continue","Continue Button",3,"object-59","Task Instructions",NA,"SUPPRF74060"
"4",1706640497842,"30/01/2024 18:48:17",1706640497842,0,"30/01/2024 18:48:17",160285,9,"task-v7r7",NA,34622821,10237476,NA,"complete",NA,"65b93c4e140ee61d635ffcb2","computer","Desktop or Laptop","Windows 10","Chrome 120.0.0.0","1280x720","1920x890",NA,NA,0,"Task Introduction and Instructions (re-introduce video and audio) (Clone)",3,"HIGJFAEBDC","Failed AC2","Passed AC1","Spreadsheet1",1,"Task Instructions","Screen 3","1qtc8v",3,"continue","",35951.2999999821,35950,35951.2999999821,35951.2999999821,35950,35951.2999999821,1,35951.2999999821,0,0,NA,"Click To Continue","Continue Button",2,"object-2983","Task Instructions",NA,"SUPPRF74060"
"5",1706640509235,"30/01/2024 18:48:29",1706640509235,0,"30/01/2024 18:48:29",160285,9,"task-v7r7",NA,34622821,10237476,NA,"complete",NA,"65b93c4e140ee61d635ffcb2","computer","Desktop or Laptop","Windows 10","Chrome 120.0.0.0","1280x720","1920x890",NA,NA,0,"Task Introduction and Instructions (re-introduce video and audio) (Clone)",3,"HIGJFAEBDC","Failed AC2","Passed AC1","Spreadsheet1",1,"Task Instructions","Screen 12","1a4vu2",4,"continue","",11393.8999999762,11383.8,11393.8999999762,11393.8999999762,11383.8,11393.8999999762,1,11393.8999999762,0,0,NA,"Click To Continue","Continue Button",2,"object-2466","Task Instructions",NA,"SUPPRF74060"
"6",1706640516702,"30/01/2024 18:48:36",1706640516702,0,"30/01/2024 18:48:36",160285,9,"task-v7r7",NA,34622821,10237476,NA,"complete",NA,"65b93c4e140ee61d635ffcb2","computer","Desktop or Laptop","Windows 10","Chrome 120.0.0.0","1280x720","1920x890",NA,NA,0,"Task Introduction and Instructions (re-introduce video and audio) (Clone)",3,"HIGJFAEBDC","Failed AC2","Passed AC1","Spreadsheet1",1,"Task Instructions","Screen 13","q9vwda",5,"continue","",7477.2,7466.39999999999,7477.2,7477.2,7466.39999999999,7477.2,1,7477.2,0,0,NA,"Click To Continue","Continue Button",2,"object-2989","Task Instructions",NA,"SUPPRF74060"
"7",1706640521640,"30/01/2024 18:48:41",1706640521640,0,"30/01/2024 18:48:41",160285,9,"task-v7r7",NA,34622821,10237476,NA,"complete",NA,"65b93c4e140ee61d635ffcb2","computer","Desktop or Laptop","Windows 10","Chrome 120.0.0.0","1280x720","1920x890",NA,NA,0,"Task Introduction and Instructions (re-introduce video and audio) (Clone)",3,"HIGJFAEBDC","Failed AC2","Passed AC1","Spreadsheet1",1,"Task Instructions","Screen 11","oyulb7",6,"continue","",4948.69999997616,4933.60000000001,4948.69999997616,4948.69999997616,4933.60000000001,4948.69999997616,1,4948.69999997616,0,0,NA,"Click To Continue","Continue Button",2,"object-52","Task Instructions",NA,"SUPPRF74060"
"8",1706640525050,"30/01/2024 18:48:45",1706640525050,0,"30/01/2024 18:48:45",160285,9,"task-v7r7",NA,34622821,10237476,NA,"complete",NA,"65b93c4e140ee61d635ffcb2","computer","Desktop or Laptop","Windows 10","Chrome 120.0.0.0","1280x720","1920x890",NA,NA,0,"Task Introduction and Instructions (re-introduce video and audio) (Clone)",3,"HIGJFAEBDC","Failed AC2","Passed AC1","Spreadsheet1",1,"Task Instructions","Screen 4","spepx9",7,"continue","",3425.39999998808,3416.5,3425.39999998808,3425.39999998808,3416.5,3425.39999998808,1,3425.39999998808,0,0,NA,"Click To Continue","Continue Button",2,"object-9","Task Instructions",NA,"SUPPRF74060"
"9",1706640528654,"30/01/2024 18:48:48",1706640528654,0,"30/01/2024 18:48:48",160285,9,"task-v7r7",NA,34622821,10237476,NA,"complete",NA,"65b93c4e140ee61d635ffcb2","computer","Desktop or Laptop","Windows 10","Chrome 120.0.0.0","1280x720","1920x890",NA,NA,0,"Task Introduction and Instructions (re-introduce video and audio) (Clone)",3,"HIGJFAEBDC","Failed AC2","Passed AC1","Spreadsheet1",1,"Task Instructions","Screen 5","8nvnao",8,"continue","",3612.7,3600.2,3612.7,3612.7,3600.2,3612.7,1,3612.7,0,0,NA,"Click To Continue","Continue Button",2,"object-44","Task Instructions",NA,"SUPPRF74060"
"10",1706640528662,"30/01/2024 18:48:48",1706640528662,0,"30/01/2024 18:48:48",160285,9,"task-v7r7",NA,34622821,10237476,NA,"complete",NA,"65b93c4e140ee61d635ffcb2","computer","Desktop or Laptop","Windows 10","Chrome 120.0.0.0","1280x720","1920x890",NA,NA,0,"Task Introduction and Instructions (re-introduce video and audio) (Clone)",3,"HIGJFAEBDC","Failed AC2","Passed AC1","Spreadsheet1",NA,"","","",NA,"5","END",NA,NA,NA,NA,NA,NA,0,NA,NA,NA,NA,"","",NA,"","",NA,"SUPPRF74060"
"1",1706639369704,"30/01/2024 18:29:29",1706639369704,0,"30/01/2024 18:29:29",160285,9,"task-v7r7",NA,34622255,10237521,NA,"complete",NA,"65b93c595218375a56b9948a","computer","Desktop or Laptop","Mac OS 10.15.7","Chrome 120.0.0.0","1512x982","1512x750",NA,NA,0,"Task Introduction and Instructions (re-introduce video and audio) (Clone)",3,"IJHAGBFCED","Passed AC2","","Spreadsheet1",NA,"","","",NA,"5","BEGIN",NA,NA,NA,NA,NA,NA,0,NA,NA,NA,NA,"","",NA,"","",NA,"SUPPRF37257"
"2",1706639374543,"30/01/2024 18:29:34",1706639374543,0,"30/01/2024 18:29:34",160285,9,"task-v7r7",NA,34622255,10237521,NA,"complete",NA,"65b93c595218375a56b9948a","computer","Desktop or Laptop","Mac OS 10.15.7","Chrome 120.0.0.0","1512x982","1512x750",NA,NA,0,"Task Introduction and Instructions (re-introduce video and audio) (Clone)",3,"IJHAGBFCED","Passed AC2","","Spreadsheet1",1,"Task Instructions","Screen 1","anr7sn",1,"continue","",4599.60000002384,4591.6,4599.60000002384,4599.60000002384,4591.6,4599.60000002384,1,4599.60000002384,0,0,NA,"Click To Continue","Continue Button",3,"object-60","Task Instructions",NA,"SUPPRF37257"
"3",1706639384305,"30/01/2024 18:29:44",1706639384305,0,"30/01/2024 18:29:44",160285,9,"task-v7r7",NA,34622255,10237521,NA,"complete",NA,"65b93c595218375a56b9948a","computer","Desktop or Laptop","Mac OS 10.15.7","Chrome 120.0.0.0","1512x982","1512x750",NA,NA,0,"Task Introduction and Instructions (re-introduce video and audio) (Clone)",3,"IJHAGBFCED","Passed AC2","","Spreadsheet1",1,"Task Instructions","Screen 2","ce2tc8",2,"continue","",9766.6,9758.2,9766.6,9766.6,9758.2,9766.6,1,9766.6,0,0,NA,"Click To Continue","Continue Button",3,"object-59","Task Instructions",NA,"SUPPRF37257"
"4",1706639393400,"30/01/2024 18:29:53",1706639393400,0,"30/01/2024 18:29:53",160285,9,"task-v7r7",NA,34622255,10237521,NA,"complete",NA,"65b93c595218375a56b9948a","computer","Desktop or Laptop","Mac OS 10.15.7","Chrome 120.0.0.0","1512x982","1512x750",NA,NA,0,"Task Introduction and Instructions (re-introduce video and audio) (Clone)",3,"IJHAGBFCED","Passed AC2","","Spreadsheet1",1,"Task Instructions","Screen 3","1qtc8v",3,"continue","",9104.3,9095.9,9104.3,9104.3,9095.9,9104.3,1,9104.3,0,0,NA,"Click To Continue","Continue Button",2,"object-2983","Task Instructions",NA,"SUPPRF37257"
"5",1706639403443,"30/01/2024 18:30:03",1706639403443,0,"30/01/2024 18:30:03",160285,9,"task-v7r7",NA,34622255,10237521,NA,"complete",NA,"65b93c595218375a56b9948a","computer","Desktop or Laptop","Mac OS 10.15.7","Chrome 120.0.0.0","1512x982","1512x750",NA,NA,0,"Task Introduction and Instructions (re-introduce video and audio) (Clone)",3,"IJHAGBFCED","Passed AC2","","Spreadsheet1",1,"Task Instructions","Screen 12","1a4vu2",4,"continue","",10053.6999999762,10045.6,10053.6999999762,10053.6999999762,10045.6,10053.6999999762,1,10053.6999999762,0,0,NA,"Click To Continue","Continue Button",2,"object-2466","Task Instructions",NA,"SUPPRF37257"
"6",1706639410739,"30/01/2024 18:30:10",1706639410739,0,"30/01/2024 18:30:10",160285,9,"task-v7r7",NA,34622255,10237521,NA,"complete",NA,"65b93c595218375a56b9948a","computer","Desktop or Laptop","Mac OS 10.15.7","Chrome 120.0.0.0","1512x982","1512x750",NA,NA,0,"Task Introduction and Instructions (re-introduce video and audio) (Clone)",3,"IJHAGBFCED","Passed AC2","","Spreadsheet1",1,"Task Instructions","Screen 13","q9vwda",5,"continue","",7304.09999997616,7295.89999999999,7304.09999997616,7304.09999997616,7295.89999999999,7304.09999997616,1,7304.09999997616,0,0,NA,"Click To Continue","Continue Button",2,"object-2989","Task Instructions",NA,"SUPPRF37257"
"7",1706639414070,"30/01/2024 18:30:14",1706639414070,0,"30/01/2024 18:30:14",160285,9,"task-v7r7",NA,34622255,10237521,NA,"complete",NA,"65b93c595218375a56b9948a","computer","Desktop or Laptop","Mac OS 10.15.7","Chrome 120.0.0.0","1512x982","1512x750",NA,NA,0,"Task Introduction and Instructions (re-introduce video and audio) (Clone)",3,"IJHAGBFCED","Passed AC2","","Spreadsheet1",1,"Task Instructions","Screen 11","oyulb7",6,"continue","",3339.99999998808,3333.2,3339.99999998808,3339.99999998808,3333.2,3339.99999998808,1,3339.99999998808,0,0,NA,"Click To Continue","Continue Button",2,"object-52","Task Instructions",NA,"SUPPRF37257"
"8",1706639416866,"30/01/2024 18:30:16",1706639416866,0,"30/01/2024 18:30:16",160285,9,"task-v7r7",NA,34622255,10237521,NA,"complete",NA,"65b93c595218375a56b9948a","computer","Desktop or Laptop","Mac OS 10.15.7","Chrome 120.0.0.0","1512x982","1512x750",NA,NA,0,"Task Introduction and Instructions (re-introduce video and audio) (Clone)",3,"IJHAGBFCED","Passed AC2","","Spreadsheet1",1,"Task Instructions","Screen 4","spepx9",7,"continue","",2800.2,2791.9,2800.2,2800.2,2791.9,2800.2,1,2800.2,0,0,NA,"Click To Continue","Continue Button",2,"object-9","Task Instructions",NA,"SUPPRF37257"
"9",1706639419904,"30/01/2024 18:30:19",1706639419904,0,"30/01/2024 18:30:19",160285,9,"task-v7r7",NA,34622255,10237521,NA,"complete",NA,"65b93c595218375a56b9948a","computer","Desktop or Laptop","Mac OS 10.15.7","Chrome 120.0.0.0","1512x982","1512x750",NA,NA,0,"Task Introduction and Instructions (re-introduce video and audio) (Clone)",3,"IJHAGBFCED","Passed AC2","","Spreadsheet1",1,"Task Instructions","Screen 5","8nvnao",8,"continue","",3048.50000001192,3041.6,3048.50000001192,3048.50000001192,3041.6,3048.50000001192,1,3048.50000001192,0,0,NA,"Click To Continue","Continue Button",2,"object-44","Task Instructions",NA,"SUPPRF37257"
"10",1706639419907,"30/01/2024 18:30:19",1706639419907,0,"30/01/2024 18:30:19",160285,9,"task-v7r7",NA,34622255,10237521,NA,"complete",NA,"65b93c595218375a56b9948a","computer","Desktop or Laptop","Mac OS 10.15.7","Chrome 120.0.0.0","1512x982","1512x750",NA,NA,0,"Task Introduction and Instructions (re-introduce video and audio) (Clone)",3,"IJHAGBFCED","Passed AC2","","Spreadsheet1",NA,"","","",NA,"5","END",NA,NA,NA,NA,NA,NA,0,NA,NA,NA,NA,"","",NA,"","",NA,"SUPPRF37257"
"1",1706639955472,"30/01/2024 18:39:15",1706639955472,0,"30/01/2024 18:39:15",160285,9,"task-v7r7",NA,34622604,10237528,NA,"complete",NA,"65b93d35ac03d251521aae93","computer","Desktop or Laptop","Windows 10","Chrome 120.0.0.0","1280x720","1280x585",NA,NA,0,"Task Introduction and Instructions (re-introduce video and audio) (Clone)",3,"ABJCIDHEGF","Passed AC2","","Spreadsheet1",NA,"","","",NA,"5","BEGIN",NA,NA,NA,NA,NA,NA,0,NA,NA,NA,NA,"","",NA,"","",NA,"SUPPRF28587"
"2",1706639959405,"30/01/2024 18:39:19",1706639959405,0,"30/01/2024 18:39:19",160285,9,"task-v7r7",NA,34622604,10237528,NA,"complete",NA,"65b93d35ac03d251521aae93","computer","Desktop or Laptop","Windows 10","Chrome 120.0.0.0","1280x720","1280x585",NA,NA,0,"Task Introduction and Instructions (re-introduce video and audio) (Clone)",3,"ABJCIDHEGF","Passed AC2","","Spreadsheet1",1,"Task Instructions","Screen 1","anr7sn",1,"continue","",3768.99999999404,3763.3,3768.99999999404,3768.99999999404,3763.3,3768.99999999404,1,3768.99999999404,0,0,NA,"Click To Continue","Continue Button",3,"object-60","Task Instructions",NA,"SUPPRF28587"
"3",1706639970287,"30/01/2024 18:39:30",1706639970287,0,"30/01/2024 18:39:30",160285,9,"task-v7r7",NA,34622604,10237528,NA,"complete",NA,"65b93d35ac03d251521aae93","computer","Desktop or Laptop","Windows 10","Chrome 120.0.0.0","1280x720","1280x585",NA,NA,0,"Task Introduction and Instructions (re-introduce video and audio) (Clone)",3,"ABJCIDHEGF","Passed AC2","","Spreadsheet1",1,"Task Instructions","Screen 2","ce2tc8",2,"continue","",10887.7999999881,10873.1,10887.7999999881,10887.7999999881,10873.1,10887.7999999881,1,10887.7999999881,0,0,NA,"Click To Continue","Continue Button",3,"object-59","Task Instructions",NA,"SUPPRF28587"
"4",1706639988507,"30/01/2024 18:39:48",1706639988507,0,"30/01/2024 18:39:48",160285,9,"task-v7r7",NA,34622604,10237528,NA,"complete",NA,"65b93d35ac03d251521aae93","computer","Desktop or Laptop","Windows 10","Chrome 120.0.0.0","1280x720","1280x585",NA,NA,0,"Task Introduction and Instructions (re-introduce video and audio) (Clone)",3,"ABJCIDHEGF","Passed AC2","","Spreadsheet1",1,"Task Instructions","Screen 3","1qtc8v",3,"continue","",18232.8,18216.2,18232.8,18232.8,18216.2,18232.8,1,18232.8,0,0,NA,"Click To Continue","Continue Button",2,"object-2983","Task Instructions",NA,"SUPPRF28587"
"5",1706639996906,"30/01/2024 18:39:56",1706639996906,0,"30/01/2024 18:39:56",160285,9,"task-v7r7",NA,34622604,10237528,NA,"complete",NA,"65b93d35ac03d251521aae93","computer","Desktop or Laptop","Windows 10","Chrome 120.0.0.0","1280x720","1280x585",NA,NA,0,"Task Introduction and Instructions (re-introduce video and audio) (Clone)",3,"ABJCIDHEGF","Passed AC2","","Spreadsheet1",1,"Task Instructions","Screen 12","1a4vu2",4,"continue","",8416.8,8408.9,8416.8,8416.8,8408.9,8416.8,1,8416.8,0,0,NA,"Click To Continue","Continue Button",2,"object-2466","Task Instructions",NA,"SUPPRF28587"
"6",1706640003399,"30/01/2024 18:40:03",1706640003399,0,"30/01/2024 18:40:03",160285,9,"task-v7r7",NA,34622604,10237528,NA,"complete",NA,"65b93d35ac03d251521aae93","computer","Desktop or Laptop","Windows 10","Chrome 120.0.0.0","1280x720","1280x585",NA,NA,0,"Task Introduction and Instructions (re-introduce video and audio) (Clone)",3,"ABJCIDHEGF","Passed AC2","","Spreadsheet1",1,"Task Instructions","Screen 13","q9vwda",5,"continue","",6500.80000000596,6493.8,6500.80000000596,6500.80000000596,6493.8,6500.80000000596,1,6500.80000000596,0,0,NA,"Click To Continue","Continue Button",2,"object-2989","Task Instructions",NA,"SUPPRF28587"
"7",1706640006978,"30/01/2024 18:40:06",1706640006978,0,"30/01/2024 18:40:06",160285,9,"task-v7r7",NA,34622604,10237528,NA,"complete",NA,"65b93d35ac03d251521aae93","computer","Desktop or Laptop","Windows 10","Chrome 120.0.0.0","1280x720","1280x585",NA,NA,0,"Task Introduction and Instructions (re-introduce video and audio) (Clone)",3,"ABJCIDHEGF","Passed AC2","","Spreadsheet1",1,"Task Instructions","Screen 11","oyulb7",6,"continue","",3586.6,3580.1,3586.6,3586.6,3580.1,3586.6,1,3586.6,0,0,NA,"Click To Continue","Continue Button",2,"object-52","Task Instructions",NA,"SUPPRF28587"
"8",1706640015821,"30/01/2024 18:40:15",1706640015821,0,"30/01/2024 18:40:15",160285,9,"task-v7r7",NA,34622604,10237528,NA,"complete",NA,"65b93d35ac03d251521aae93","computer","Desktop or Laptop","Windows 10","Chrome 120.0.0.0","1280x720","1280x585",NA,NA,0,"Task Introduction and Instructions (re-introduce video and audio) (Clone)",3,"ABJCIDHEGF","Passed AC2","","Spreadsheet1",1,"Task Instructions","Screen 4","spepx9",7,"continue","",8849.30000001192,8841.7,8849.30000001192,8849.30000001192,8841.7,8849.30000001192,1,8849.30000001192,0,0,NA,"Click To Continue","Continue Button",2,"object-9","Task Instructions",NA,"SUPPRF28587"
"9",1706640019209,"30/01/2024 18:40:19",1706640019209,0,"30/01/2024 18:40:19",160285,9,"task-v7r7",NA,34622604,10237528,NA,"complete",NA,"65b93d35ac03d251521aae93","computer","Desktop or Laptop","Windows 10","Chrome 120.0.0.0","1280x720","1280x585",NA,NA,0,"Task Introduction and Instructions (re-introduce video and audio) (Clone)",3,"ABJCIDHEGF","Passed AC2","","Spreadsheet1",1,"Task Instructions","Screen 5","8nvnao",8,"continue","",3395.99999998808,3380.10000000001,3395.99999998808,3395.99999998808,3380.10000000001,3395.99999998808,1,3395.99999998808,0,0,NA,"Click To Continue","Continue Button",2,"object-44","Task Instructions",NA,"SUPPRF28587"
"10",1706640019213,"30/01/2024 18:40:19",1706640019213,0,"30/01/2024 18:40:19",160285,9,"task-v7r7",NA,34622604,10237528,NA,"complete",NA,"65b93d35ac03d251521aae93","computer","Desktop or Laptop","Windows 10","Chrome 120.0.0.0","1280x720","1280x585",NA,NA,0,"Task Introduction and Instructions (re-introduce video and audio) (Clone)",3,"ABJCIDHEGF","Passed AC2","","Spreadsheet1",NA,"","","",NA,"5","END",NA,NA,NA,NA,NA,NA,0,NA,NA,NA,NA,"","",NA,"","",NA,"SUPPRF28587"
"1",1706639528248,"30/01/2024 18:32:08",1706639528248,0,"30/01/2024 18:32:08",160285,9,"task-v7r7",NA,34622342,10237598,NA,"complete",NA,"65b93d52c40c91afef7b12c0","computer","Desktop or Laptop","Windows 10","Chrome 121.0.0.0","1920x1080","1920x963",NA,NA,0,"Task Introduction and Instructions (re-introduce video and audio) (Clone)",3,"CDBEAFJGIH","Passed AC2","","Spreadsheet1",NA,"","","",NA,"5","BEGIN",NA,NA,NA,NA,NA,NA,0,NA,NA,NA,NA,"","",NA,"","",NA,"SUPPRF80786"
"2",1706639531220,"30/01/2024 18:32:11",1706639531220,0,"30/01/2024 18:32:11",160285,9,"task-v7r7",NA,34622342,10237598,NA,"complete",NA,"65b93d52c40c91afef7b12c0","computer","Desktop or Laptop","Windows 10","Chrome 121.0.0.0","1920x1080","1920x963",NA,NA,0,"Task Introduction and Instructions (re-introduce video and audio) (Clone)",3,"CDBEAFJGIH","Passed AC2","","Spreadsheet1",1,"Task Instructions","Screen 1","anr7sn",1,"continue","",2866.5,2849.9,2866.5,2866.5,2849.9,2866.5,1,2866.5,0,0,NA,"Click To Continue","Continue Button",3,"object-60","Task Instructions",NA,"SUPPRF80786"
"3",1706639541427,"30/01/2024 18:32:21",1706639541427,0,"30/01/2024 18:32:21",160285,9,"task-v7r7",NA,34622342,10237598,NA,"complete",NA,"65b93d52c40c91afef7b12c0","computer","Desktop or Laptop","Windows 10","Chrome 121.0.0.0","1920x1080","1920x963",NA,NA,0,"Task Introduction and Instructions (re-introduce video and audio) (Clone)",3,"CDBEAFJGIH","Passed AC2","","Spreadsheet1",1,"Task Instructions","Screen 2","ce2tc8",2,"continue","",10224.3999999996,10216.4,10224.3999999996,10224.3999999996,10216.4,10224.3999999996,1,10224.3999999996,0,0,NA,"Click To Continue","Continue Button",3,"object-59","Task Instructions",NA,"SUPPRF80786"
"4",1706639546560,"30/01/2024 18:32:26",1706639546560,0,"30/01/2024 18:32:26",160285,9,"task-v7r7",NA,34622342,10237598,NA,"complete",NA,"65b93d52c40c91afef7b12c0","computer","Desktop or Laptop","Windows 10","Chrome 121.0.0.0","1920x1080","1920x963",NA,NA,0,"Task Introduction and Instructions (re-introduce video and audio) (Clone)",3,"CDBEAFJGIH","Passed AC2","","Spreadsheet1",1,"Task Instructions","Screen 3","1qtc8v",3,"continue","",5141.19999999888,5133.4,5141.19999999888,5141.19999999888,5133.4,5141.19999999888,1,5141.19999999888,0,0,NA,"Click To Continue","Continue Button",2,"object-2983","Task Instructions",NA,"SUPPRF80786"
"5",1706639559476,"30/01/2024 18:32:39",1706639559476,0,"30/01/2024 18:32:39",160285,9,"task-v7r7",NA,34622342,10237598,NA,"complete",NA,"65b93d52c40c91afef7b12c0","computer","Desktop or Laptop","Windows 10","Chrome 121.0.0.0","1920x1080","1920x963",NA,NA,0,"Task Introduction and Instructions (re-introduce video and audio) (Clone)",3,"CDBEAFJGIH","Passed AC2","","Spreadsheet1",1,"Task Instructions","Screen 12","1a4vu2",4,"continue","",12924.8999999985,12916.5,12924.8999999985,12924.8999999985,12916.5,12924.8999999985,1,12924.8999999985,0,0,NA,"Click To Continue","Continue Button",2,"object-2466","Task Instructions",NA,"SUPPRF80786"
"6",1706639564376,"30/01/2024 18:32:44",1706639564376,0,"30/01/2024 18:32:44",160285,9,"task-v7r7",NA,34622342,10237598,NA,"complete",NA,"65b93d52c40c91afef7b12c0","computer","Desktop or Laptop","Windows 10","Chrome 121.0.0.0","1920x1080","1920x963",NA,NA,0,"Task Introduction and Instructions (re-introduce video and audio) (Clone)",3,"CDBEAFJGIH","Passed AC2","","Spreadsheet1",1,"Task Instructions","Screen 13","q9vwda",5,"continue","",4908,4900,4908,4908,4900,4908,1,4908,0,0,NA,"Click To Continue","Continue Button",2,"object-2989","Task Instructions",NA,"SUPPRF80786"
"7",1706639569108,"30/01/2024 18:32:49",1706639569108,0,"30/01/2024 18:32:49",160285,9,"task-v7r7",NA,34622342,10237598,NA,"complete",NA,"65b93d52c40c91afef7b12c0","computer","Desktop or Laptop","Windows 10","Chrome 121.0.0.0","1920x1080","1920x963",NA,NA,0,"Task Introduction and Instructions (re-introduce video and audio) (Clone)",3,"CDBEAFJGIH","Passed AC2","","Spreadsheet1",1,"Task Instructions","Screen 11","oyulb7",6,"continue","",4740.19999999925,4733.2,4740.19999999925,4740.19999999925,4733.2,4740.19999999925,1,4740.19999999925,0,0,NA,"Click To Continue","Continue Button",2,"object-52","Task Instructions",NA,"SUPPRF80786"
"8",1706639593023,"30/01/2024 18:33:13",1706639593023,0,"30/01/2024 18:33:13",160285,9,"task-v7r7",NA,34622342,10237598,NA,"complete",NA,"65b93d52c40c91afef7b12c0","computer","Desktop or Laptop","Windows 10","Chrome 121.0.0.0","1920x1080","1920x963",NA,NA,0,"Task Introduction and Instructions (re-introduce video and audio) (Clone)",3,"CDBEAFJGIH","Passed AC2","","Spreadsheet1",1,"Task Instructions","Screen 4","spepx9",7,"continue","",23922.1999999985,23916.5,23922.1999999985,23922.1999999985,23916.5,23922.1999999985,1,23922.1999999985,0,0,NA,"Click To Continue","Continue Button",2,"object-9","Task Instructions",NA,"SUPPRF80786"
"9",1706639595981,"30/01/2024 18:33:15",1706639595981,0,"30/01/2024 18:33:15",160285,9,"task-v7r7",NA,34622342,10237598,NA,"complete",NA,"65b93d52c40c91afef7b12c0","computer","Desktop or Laptop","Windows 10","Chrome 121.0.0.0","1920x1080","1920x963",NA,NA,0,"Task Introduction and Instructions (re-introduce video and audio) (Clone)",3,"CDBEAFJGIH","Passed AC2","","Spreadsheet1",1,"Task Instructions","Screen 5","8nvnao",8,"continue","",2963.09999999889,2949.90000000001,2963.09999999889,2963.09999999889,2949.90000000001,2963.09999999889,1,2963.09999999889,0,0,NA,"Click To Continue","Continue Button",2,"object-44","Task Instructions",NA,"SUPPRF80786"
"10",1706639595985,"30/01/2024 18:33:15",1706639595985,0,"30/01/2024 18:33:15",160285,9,"task-v7r7",NA,34622342,10237598,NA,"complete",NA,"65b93d52c40c91afef7b12c0","computer","Desktop or Laptop","Windows 10","Chrome 121.0.0.0","1920x1080","1920x963",NA,NA,0,"Task Introduction and Instructions (re-introduce video and audio) (Clone)",3,"CDBEAFJGIH","Passed AC2","","Spreadsheet1",NA,"","","",NA,"5","END",NA,NA,NA,NA,NA,NA,0,NA,NA,NA,NA,"","",NA,"","",NA,"SUPPRF80786"
"1",1706639827823,"30/01/2024 18:37:07",1706639827823,0,"30/01/2024 18:37:07",160285,9,"task-v7r7",NA,34622522,10237616,NA,"complete",NA,"65b93f0c16182d8aeb3546d2","computer","Desktop or Laptop","Mac OS 10.15.7","Chrome 121.0.0.0","1280x800","1280x679",NA,NA,0,"Task Introduction and Instructions (re-introduce video and audio) (Clone)",3,"DECFBGAHJI","Passed AC2","","Spreadsheet1",NA,"","","",NA,"5","BEGIN",NA,NA,NA,NA,NA,NA,0,NA,NA,NA,NA,"","",NA,"","",NA,"SUPPRF90597"
"2",1706639830943,"30/01/2024 18:37:10",1706639830943,0,"30/01/2024 18:37:10",160285,9,"task-v7r7",NA,34622522,10237616,NA,"complete",NA,"65b93f0c16182d8aeb3546d2","computer","Desktop or Laptop","Mac OS 10.15.7","Chrome 121.0.0.0","1280x800","1280x679",NA,NA,0,"Task Introduction and Instructions (re-introduce video and audio) (Clone)",3,"DECFBGAHJI","Passed AC2","","Spreadsheet1",1,"Task Instructions","Screen 1","anr7sn",1,"continue","",3035.60000003576,3031.1,3035.60000003576,3035.60000003576,3031.1,3035.60000003576,1,3035.60000003576,0,0,NA,"Click To Continue","Continue Button",3,"object-60","Task Instructions",NA,"SUPPRF90597"
"3",1706639864788,"30/01/2024 18:37:44",1706639864788,0,"30/01/2024 18:37:44",160285,9,"task-v7r7",NA,34622522,10237616,NA,"complete",NA,"65b93f0c16182d8aeb3546d2","computer","Desktop or Laptop","Mac OS 10.15.7","Chrome 121.0.0.0","1280x800","1280x679",NA,NA,0,"Task Introduction and Instructions (re-introduce video and audio) (Clone)",3,"DECFBGAHJI","Passed AC2","","Spreadsheet1",1,"Task Instructions","Screen 2","ce2tc8",2,"continue","",33848.7999999881,33844.5,33848.7999999881,33848.7999999881,33844.5,33848.7999999881,1,33848.7999999881,0,0,NA,"Click To Continue","Continue Button",3,"object-59","Task Instructions",NA,"SUPPRF90597"
"4",1706639877470,"30/01/2024 18:37:57",1706639877470,0,"30/01/2024 18:37:57",160285,9,"task-v7r7",NA,34622522,10237616,NA,"complete",NA,"65b93f0c16182d8aeb3546d2","computer","Desktop or Laptop","Mac OS 10.15.7","Chrome 121.0.0.0","1280x800","1280x679",NA,NA,0,"Task Introduction and Instructions (re-introduce video and audio) (Clone)",3,"DECFBGAHJI","Passed AC2","","Spreadsheet1",1,"Task Instructions","Screen 3","1qtc8v",3,"continue","",12686.2999999881,12674.8,12686.2999999881,12686.2999999881,12674.8,12686.2999999881,1,12686.2999999881,0,0,NA,"Click To Continue","Continue Button",2,"object-2983","Task Instructions",NA,"SUPPRF90597"
"5",1706639881269,"30/01/2024 18:38:01",1706639881269,0,"30/01/2024 18:38:01",160285,9,"task-v7r7",NA,34622522,10237616,NA,"complete",NA,"65b93f0c16182d8aeb3546d2","computer","Desktop or Laptop","Mac OS 10.15.7","Chrome 121.0.0.0","1280x800","1280x679",NA,NA,0,"Task Introduction and Instructions (re-introduce video and audio) (Clone)",3,"DECFBGAHJI","Passed AC2","","Spreadsheet1",1,"Task Instructions","Screen 12","1a4vu2",4,"continue","",3810.20000003577,3798.2,3810.20000003577,3810.20000003577,3798.2,3810.20000003577,1,3810.20000003577,0,0,NA,"Click To Continue","Continue Button",2,"object-2466","Task Instructions",NA,"SUPPRF90597"
"6",1706639888283,"30/01/2024 18:38:08",1706639888283,0,"30/01/2024 18:38:08",160285,9,"task-v7r7",NA,34622522,10237616,NA,"complete",NA,"65b93f0c16182d8aeb3546d2","computer","Desktop or Laptop","Mac OS 10.15.7","Chrome 121.0.0.0","1280x800","1280x679",NA,NA,0,"Task Introduction and Instructions (re-introduce video and audio) (Clone)",3,"DECFBGAHJI","Passed AC2","","Spreadsheet1",1,"Task Instructions","Screen 13","q9vwda",5,"continue","",7026.1,7011.6,7026.1,7026.1,7011.6,7026.1,1,7026.1,0,0,NA,"Click To Continue","Continue Button",2,"object-2989","Task Instructions",NA,"SUPPRF90597"
"7",1706639891544,"30/01/2024 18:38:11",1706639891544,0,"30/01/2024 18:38:11",160285,9,"task-v7r7",NA,34622522,10237616,NA,"complete",NA,"65b93f0c16182d8aeb3546d2","computer","Desktop or Laptop","Mac OS 10.15.7","Chrome 121.0.0.0","1280x800","1280x679",NA,NA,0,"Task Introduction and Instructions (re-introduce video and audio) (Clone)",3,"DECFBGAHJI","Passed AC2","","Spreadsheet1",1,"Task Instructions","Screen 11","oyulb7",6,"continue","",3275.60000002384,3264.9,3275.60000002384,3275.60000002384,3264.9,3275.60000002384,1,3275.60000002384,0,0,NA,"Click To Continue","Continue Button",2,"object-52","Task Instructions",NA,"SUPPRF90597"
"8",1706639898852,"30/01/2024 18:38:18",1706639898852,0,"30/01/2024 18:38:18",160285,9,"task-v7r7",NA,34622522,10237616,NA,"complete",NA,"65b93f0c16182d8aeb3546d2","computer","Desktop or Laptop","Mac OS 10.15.7","Chrome 121.0.0.0","1280x800","1280x679",NA,NA,0,"Task Introduction and Instructions (re-introduce video and audio) (Clone)",3,"DECFBGAHJI","Passed AC2","","Spreadsheet1",1,"Task Instructions","Screen 4","spepx9",7,"continue","",7318.70000002384,7311.1,7318.70000002384,7318.70000002384,7311.1,7318.70000002384,1,7318.70000002384,0,0,NA,"Click To Continue","Continue Button",2,"object-9","Task Instructions",NA,"SUPPRF90597"
"9",1706639908078,"30/01/2024 18:38:28",1706639908078,0,"30/01/2024 18:38:28",160285,9,"task-v7r7",NA,34622522,10237616,NA,"complete",NA,"65b93f0c16182d8aeb3546d2","computer","Desktop or Laptop","Mac OS 10.15.7","Chrome 121.0.0.0","1280x800","1280x679",NA,NA,0,"Task Introduction and Instructions (re-introduce video and audio) (Clone)",3,"DECFBGAHJI","Passed AC2","","Spreadsheet1",1,"Task Instructions","Screen 5","8nvnao",8,"continue","",9233.5,9227.60000000001,9233.5,9233.5,9227.60000000001,9233.5,1,9233.5,0,0,NA,"Click To Continue","Continue Button",2,"object-44","Task Instructions",NA,"SUPPRF90597"
"10",1706639908087,"30/01/2024 18:38:28",1706639908087,0,"30/01/2024 18:38:28",160285,9,"task-v7r7",NA,34622522,10237616,NA,"complete",NA,"65b93f0c16182d8aeb3546d2","computer","Desktop or Laptop","Mac OS 10.15.7","Chrome 121.0.0.0","1280x800","1280x679",NA,NA,0,"Task Introduction and Instructions (re-introduce video and audio) (Clone)",3,"DECFBGAHJI","Passed AC2","","Spreadsheet1",NA,"","","",NA,"5","END",NA,NA,NA,NA,NA,NA,0,NA,NA,NA,NA,"","",NA,"","",NA,"SUPPRF90597"
"1",1706639807304,"30/01/2024 18:36:47",1706639807304,0,"30/01/2024 18:36:47",160285,9,"task-v7r7",NA,34622506,10237636,NA,"complete",NA,"65b93a437cad71e32263e958","computer","Desktop or Laptop","Windows 10","Chrome 121.0.0.0","1366x768","1366x641",NA,NA,0,"Task Introduction and Instructions (re-introduce video and audio) (Clone)",3,"EFDGCHBIAJ","Passed AC2","","Spreadsheet1",NA,"","","",NA,"5","BEGIN",NA,NA,NA,NA,NA,NA,0,NA,NA,NA,NA,"","",NA,"","",NA,"SUPPRF90557"
"2",1706639810225,"30/01/2024 18:36:50",1706639810225,0,"30/01/2024 18:36:50",160285,9,"task-v7r7",NA,34622506,10237636,NA,"complete",NA,"65b93a437cad71e32263e958","computer","Desktop or Laptop","Windows 10","Chrome 121.0.0.0","1366x768","1366x641",NA,NA,0,"Task Introduction and Instructions (re-introduce video and audio) (Clone)",3,"EFDGCHBIAJ","Passed AC2","","Spreadsheet1",1,"Task Instructions","Screen 1","anr7sn",1,"continue","",2831.49999999404,2815.4,2831.49999999404,2831.49999999404,2815.4,2831.49999999404,1,2831.49999999404,0,0,NA,"Click To Continue","Continue Button",3,"object-60","Task Instructions",NA,"SUPPRF90557"
"3",1706639820210,"30/01/2024 18:37:00",1706639820210,0,"30/01/2024 18:37:00",160285,9,"task-v7r7",NA,34622506,10237636,NA,"complete",NA,"65b93a437cad71e32263e958","computer","Desktop or Laptop","Windows 10","Chrome 121.0.0.0","1366x768","1366x641",NA,NA,0,"Task Introduction and Instructions (re-introduce video and audio) (Clone)",3,"EFDGCHBIAJ","Passed AC2","","Spreadsheet1",1,"Task Instructions","Screen 2","ce2tc8",2,"continue","",10001.3999999911,9995.8,10001.3999999911,10001.3999999911,9995.8,10001.3999999911,1,10001.3999999911,0,0,NA,"Click To Continue","Continue Button",3,"object-59","Task Instructions",NA,"SUPPRF90557"
"4",1706639844615,"30/01/2024 18:37:24",1706639844615,0,"30/01/2024 18:37:24",160285,9,"task-v7r7",NA,34622506,10237636,NA,"complete",NA,"65b93a437cad71e32263e958","computer","Desktop or Laptop","Windows 10","Chrome 121.0.0.0","1366x768","1366x641",NA,NA,0,"Task Introduction and Instructions (re-introduce video and audio) (Clone)",3,"EFDGCHBIAJ","Passed AC2","","Spreadsheet1",1,"Task Instructions","Screen 3","1qtc8v",3,"continue","",24411.2,24406.6,24411.2,24411.2,24406.6,24411.2,1,24411.2,0,0,NA,"Click To Continue","Continue Button",2,"object-2983","Task Instructions",NA,"SUPPRF90557"
"5",1706639906094,"30/01/2024 18:38:26",1706639906094,0,"30/01/2024 18:38:26",160285,9,"task-v7r7",NA,34622506,10237636,NA,"complete",NA,"65b93a437cad71e32263e958","computer","Desktop or Laptop","Windows 10","Chrome 121.0.0.0","1366x768","1366x641",NA,NA,0,"Task Introduction and Instructions (re-introduce video and audio) (Clone)",3,"EFDGCHBIAJ","Passed AC2","","Spreadsheet1",1,"Task Instructions","Screen 12","1a4vu2",4,"continue","",61483.399999997,61474.4,61483.399999997,61483.399999997,61474.4,61483.399999997,1,61483.399999997,0,0,NA,"Click To Continue","Continue Button",2,"object-2466","Task Instructions",NA,"SUPPRF90557"
"6",1706639913307,"30/01/2024 18:38:33",1706639913307,0,"30/01/2024 18:38:33",160285,9,"task-v7r7",NA,34622506,10237636,NA,"complete",NA,"65b93a437cad71e32263e958","computer","Desktop or Laptop","Windows 10","Chrome 121.0.0.0","1366x768","1366x641",NA,NA,0,"Task Introduction and Instructions (re-introduce video and audio) (Clone)",3,"EFDGCHBIAJ","Passed AC2","","Spreadsheet1",1,"Task Instructions","Screen 13","q9vwda",5,"continue","",7222.2,7213.7,7222.2,7222.2,7213.7,7222.2,1,7222.2,0,0,NA,"Click To Continue","Continue Button",2,"object-2989","Task Instructions",NA,"SUPPRF90557"
"7",1706639916175,"30/01/2024 18:38:36",1706639916175,0,"30/01/2024 18:38:36",160285,9,"task-v7r7",NA,34622506,10237636,NA,"complete",NA,"65b93a437cad71e32263e958","computer","Desktop or Laptop","Windows 10","Chrome 121.0.0.0","1366x768","1366x641",NA,NA,0,"Task Introduction and Instructions (re-introduce video and audio) (Clone)",3,"EFDGCHBIAJ","Passed AC2","","Spreadsheet1",1,"Task Instructions","Screen 11","oyulb7",6,"continue","",2876.09999999404,2865.39999999999,2876.09999999404,2876.09999999404,2865.39999999999,2876.09999999404,1,2876.09999999404,0,0,NA,"Click To Continue","Continue Button",2,"object-52","Task Instructions",NA,"SUPPRF90557"
"8",1706639919022,"30/01/2024 18:38:39",1706639919022,0,"30/01/2024 18:38:39",160285,9,"task-v7r7",NA,34622506,10237636,NA,"complete",NA,"65b93a437cad71e32263e958","computer","Desktop or Laptop","Windows 10","Chrome 121.0.0.0","1366x768","1366x641",NA,NA,0,"Task Introduction and Instructions (re-introduce video and audio) (Clone)",3,"EFDGCHBIAJ","Passed AC2","","Spreadsheet1",1,"Task Instructions","Screen 4","spepx9",7,"continue","",2857.79999998808,2848.8,2857.79999998808,2857.79999998808,2848.8,2857.79999998808,1,2857.79999998808,0,0,NA,"Click To Continue","Continue Button",2,"object-9","Task Instructions",NA,"SUPPRF90557"
"9",1706639977647,"30/01/2024 18:39:37",1706639977647,0,"30/01/2024 18:39:37",160285,9,"task-v7r7",NA,34622506,10237636,NA,"complete",NA,"65b93a437cad71e32263e958","computer","Desktop or Laptop","Windows 10","Chrome 121.0.0.0","1366x768","1366x641",NA,NA,0,"Task Introduction and Instructions (re-introduce video and audio) (Clone)",3,"EFDGCHBIAJ","Passed AC2","","Spreadsheet1",1,"Task Instructions","Screen 5","8nvnao",8,"continue","",58634.3,58625.8,58634.3,58634.3,58625.8,58634.3,1,58634.3,0,0,NA,"Click To Continue","Continue Button",2,"object-44","Task Instructions",NA,"SUPPRF90557"
"10",1706639977661,"30/01/2024 18:39:37",1706639977661,0,"30/01/2024 18:39:37",160285,9,"task-v7r7",NA,34622506,10237636,NA,"complete",NA,"65b93a437cad71e32263e958","computer","Desktop or Laptop","Windows 10","Chrome 121.0.0.0","1366x768","1366x641",NA,NA,0,"Task Introduction and Instructions (re-introduce video and audio) (Clone)",3,"EFDGCHBIAJ","Passed AC2","","Spreadsheet1",NA,"","","",NA,"5","END",NA,NA,NA,NA,NA,NA,0,NA,NA,NA,NA,"","",NA,"","",NA,"SUPPRF90557"
"1",1706640514137,"30/01/2024 18:48:34",1706622514137,-5,"30/01/2024 08:48:34",160285,9,"task-v7r7",NA,34622851,10237714,NA,"complete",NA,"65b941764042a1bfcfc84fb5","computer","Desktop or Laptop","Mac OS 10.15.7","Chrome 119.0.0.0","1440x900","1440x783",NA,NA,0,"Task Introduction and Instructions (re-introduce video and audio) (Clone)",3,"HIGJFAEBDC","Passed AC2","","Spreadsheet1",NA,"","","",NA,"5","BEGIN",NA,NA,NA,NA,NA,NA,0,NA,NA,NA,NA,"","",NA,"","",NA,"SUPPRF05137"
"2",1706640524605,"30/01/2024 18:48:44",1706622524605,-5,"30/01/2024 08:48:44",160285,9,"task-v7r7",NA,34622851,10237714,NA,"complete",NA,"65b941764042a1bfcfc84fb5","computer","Desktop or Laptop","Mac OS 10.15.7","Chrome 119.0.0.0","1440x900","1440x783",NA,NA,0,"Task Introduction and Instructions (re-introduce video and audio) (Clone)",3,"HIGJFAEBDC","Passed AC2","","Spreadsheet1",1,"Task Instructions","Screen 1","anr7sn",1,"continue","",10350.328,10333.745,10350.328,10350.328,10333.745,10350.328,1,10350.328,0,0,NA,"Click To Continue","Continue Button",3,"object-60","Task Instructions",NA,"SUPPRF05137"
"3",1706640537034,"30/01/2024 18:48:57",1706622537034,-5,"30/01/2024 08:48:57",160285,9,"task-v7r7",NA,34622851,10237714,NA,"complete",NA,"65b941764042a1bfcfc84fb5","computer","Desktop or Laptop","Mac OS 10.15.7","Chrome 119.0.0.0","1440x900","1440x783",NA,NA,0,"Task Introduction and Instructions (re-introduce video and audio) (Clone)",3,"HIGJFAEBDC","Passed AC2","","Spreadsheet1",1,"Task Instructions","Screen 2","ce2tc8",2,"continue","",12446.6829999046,12433.672,12446.6829999046,12446.6829999046,12433.672,12446.6829999046,1,12446.6829999046,0,0,NA,"Click To Continue","Continue Button",3,"object-59","Task Instructions",NA,"SUPPRF05137"
"4",1706640543483,"30/01/2024 18:49:03",1706622543483,-5,"30/01/2024 08:49:03",160285,9,"task-v7r7",NA,34622851,10237714,NA,"complete",NA,"65b941764042a1bfcfc84fb5","computer","Desktop or Laptop","Mac OS 10.15.7","Chrome 119.0.0.0","1440x900","1440x783",NA,NA,0,"Task Introduction and Instructions (re-introduce video and audio) (Clone)",3,"HIGJFAEBDC","Passed AC2","","Spreadsheet1",1,"Task Instructions","Screen 3","1qtc8v",3,"continue","",6462.61100004768,6450.568,6462.61100004768,6462.61100004768,6450.568,6462.61100004768,1,6462.61100004768,0,0,NA,"Click To Continue","Continue Button",2,"object-2983","Task Instructions",NA,"SUPPRF05137"
"5",1706640551851,"30/01/2024 18:49:11",1706622551851,-5,"30/01/2024 08:49:11",160285,9,"task-v7r7",NA,34622851,10237714,NA,"complete",NA,"65b941764042a1bfcfc84fb5","computer","Desktop or Laptop","Mac OS 10.15.7","Chrome 119.0.0.0","1440x900","1440x783",NA,NA,0,"Task Introduction and Instructions (re-introduce video and audio) (Clone)",3,"HIGJFAEBDC","Passed AC2","","Spreadsheet1",1,"Task Instructions","Screen 12","1a4vu2",4,"continue","",8380.44299990463,8367.158,8380.44299990463,8380.44299990463,8367.158,8380.44299990463,1,8380.44299990463,0,0,NA,"Click To Continue","Continue Button",2,"object-2466","Task Instructions",NA,"SUPPRF05137"
"6",1706640556434,"30/01/2024 18:49:16",1706622556434,-5,"30/01/2024 08:49:16",160285,9,"task-v7r7",NA,34622851,10237714,NA,"complete",NA,"65b941764042a1bfcfc84fb5","computer","Desktop or Laptop","Mac OS 10.15.7","Chrome 119.0.0.0","1440x900","1440x783",NA,NA,0,"Task Introduction and Instructions (re-introduce video and audio) (Clone)",3,"HIGJFAEBDC","Passed AC2","","Spreadsheet1",1,"Task Instructions","Screen 13","q9vwda",5,"continue","",4596.28499990463,4583.14999999999,4596.28499990463,4596.28499990463,4583.14999999999,4596.28499990463,1,4596.28499990463,0,0,NA,"Click To Continue","Continue Button",2,"object-2989","Task Instructions",NA,"SUPPRF05137"
"7",1706640558985,"30/01/2024 18:49:18",1706622558985,-5,"30/01/2024 08:49:18",160285,9,"task-v7r7",NA,34622851,10237714,NA,"complete",NA,"65b941764042a1bfcfc84fb5","computer","Desktop or Laptop","Mac OS 10.15.7","Chrome 119.0.0.0","1440x900","1440x783",NA,NA,0,"Task Introduction and Instructions (re-introduce video and audio) (Clone)",3,"HIGJFAEBDC","Passed AC2","","Spreadsheet1",1,"Task Instructions","Screen 11","oyulb7",6,"continue","",2564.035,2550.72300000001,2564.035,2564.035,2550.72300000001,2564.035,1,2564.035,0,0,NA,"Click To Continue","Continue Button",2,"object-52","Task Instructions",NA,"SUPPRF05137"
"8",1706640561388,"30/01/2024 18:49:21",1706622561388,-5,"30/01/2024 08:49:21",160285,9,"task-v7r7",NA,34622851,10237714,NA,"complete",NA,"65b941764042a1bfcfc84fb5","computer","Desktop or Laptop","Mac OS 10.15.7","Chrome 119.0.0.0","1440x900","1440x783",NA,NA,0,"Task Introduction and Instructions (re-introduce video and audio) (Clone)",3,"HIGJFAEBDC","Passed AC2","","Spreadsheet1",1,"Task Instructions","Screen 4","spepx9",7,"continue","",2415.812,2399.90399999999,2415.812,2415.812,2399.90399999999,2415.812,1,2415.812,0,0,NA,"Click To Continue","Continue Button",2,"object-9","Task Instructions",NA,"SUPPRF05137"
"9",1706640563850,"30/01/2024 18:49:23",1706622563850,-5,"30/01/2024 08:49:23",160285,9,"task-v7r7",NA,34622851,10237714,NA,"complete",NA,"65b941764042a1bfcfc84fb5","computer","Desktop or Laptop","Mac OS 10.15.7","Chrome 119.0.0.0","1440x900","1440x783",NA,NA,0,"Task Introduction and Instructions (re-introduce video and audio) (Clone)",3,"HIGJFAEBDC","Passed AC2","","Spreadsheet1",1,"Task Instructions","Screen 5","8nvnao",8,"continue","",2479.00799990464,2466.56800000001,2479.00799990464,2479.00799990464,2466.56800000001,2479.00799990464,1,2479.00799990464,0,0,NA,"Click To Continue","Continue Button",2,"object-44","Task Instructions",NA,"SUPPRF05137"
"10",1706640563852,"30/01/2024 18:49:23",1706622563852,-5,"30/01/2024 08:49:23",160285,9,"task-v7r7",NA,34622851,10237714,NA,"complete",NA,"65b941764042a1bfcfc84fb5","computer","Desktop or Laptop","Mac OS 10.15.7","Chrome 119.0.0.0","1440x900","1440x783",NA,NA,0,"Task Introduction and Instructions (re-introduce video and audio) (Clone)",3,"HIGJFAEBDC","Passed AC2","","Spreadsheet1",NA,"","","",NA,"5","END",NA,NA,NA,NA,NA,NA,0,NA,NA,NA,NA,"","",NA,"","",NA,"SUPPRF05137"
"1",1706640636763,"30/01/2024 18:50:36",1706640636763,0,"30/01/2024 18:50:36",160285,9,"task-v7r7",NA,34622904,10237689,NA,"complete",NA,"65b9409896d6a5850d7296a9","computer","Desktop or Laptop","Windows 10","Chrome 120.0.0.0","1536x864","1536x695",NA,NA,0,"Task Introduction and Instructions (re-introduce video and audio) (Clone)",3,"GHFIEJDACB","Passed AC2","","Spreadsheet1",NA,"","","",NA,"5","BEGIN",NA,NA,NA,NA,NA,NA,0,NA,NA,NA,NA,"","",NA,"","",NA,"SUPPRF54993"
"2",1706640641497,"30/01/2024 18:50:41",1706640641497,0,"30/01/2024 18:50:41",160285,9,"task-v7r7",NA,34622904,10237689,NA,"complete",NA,"65b9409896d6a5850d7296a9","computer","Desktop or Laptop","Windows 10","Chrome 120.0.0.0","1536x864","1536x695",NA,NA,0,"Task Introduction and Instructions (re-introduce video and audio) (Clone)",3,"GHFIEJDACB","Passed AC2","","Spreadsheet1",1,"Task Instructions","Screen 1","anr7sn",1,"continue","",4605.39999995232,4598.8,4605.39999995232,4605.39999995232,4598.8,4605.39999995232,1,4605.39999995232,0,0,NA,"Click To Continue","Continue Button",3,"object-60","Task Instructions",NA,"SUPPRF54993"
"3",1706640655552,"30/01/2024 18:50:55",1706640655552,0,"30/01/2024 18:50:55",160285,9,"task-v7r7",NA,34622904,10237689,NA,"complete",NA,"65b9409896d6a5850d7296a9","computer","Desktop or Laptop","Windows 10","Chrome 120.0.0.0","1536x864","1536x695",NA,NA,0,"Task Introduction and Instructions (re-introduce video and audio) (Clone)",3,"GHFIEJDACB","Passed AC2","","Spreadsheet1",1,"Task Instructions","Screen 2","ce2tc8",2,"continue","",14061.0999999523,14054.3,14061.0999999523,14061.0999999523,14054.3,14061.0999999523,1,14061.0999999523,0,0,NA,"Click To Continue","Continue Button",3,"object-59","Task Instructions",NA,"SUPPRF54993"
"4",1706640665489,"30/01/2024 18:51:05",1706640665489,0,"30/01/2024 18:51:05",160285,9,"task-v7r7",NA,34622904,10237689,NA,"complete",NA,"65b9409896d6a5850d7296a9","computer","Desktop or Laptop","Windows 10","Chrome 120.0.0.0","1536x864","1536x695",NA,NA,0,"Task Introduction and Instructions (re-introduce video and audio) (Clone)",3,"GHFIEJDACB","Passed AC2","","Spreadsheet1",1,"Task Instructions","Screen 3","1qtc8v",3,"continue","",9944.79999995232,9938.5,9944.79999995232,9944.79999995232,9938.5,9944.79999995232,1,9944.79999995232,0,0,NA,"Click To Continue","Continue Button",2,"object-2983","Task Instructions",NA,"SUPPRF54993"
"5",1706640674444,"30/01/2024 18:51:14",1706640674444,0,"30/01/2024 18:51:14",160285,9,"task-v7r7",NA,34622904,10237689,NA,"complete",NA,"65b9409896d6a5850d7296a9","computer","Desktop or Laptop","Windows 10","Chrome 120.0.0.0","1536x864","1536x695",NA,NA,0,"Task Introduction and Instructions (re-introduce video and audio) (Clone)",3,"GHFIEJDACB","Passed AC2","","Spreadsheet1",1,"Task Instructions","Screen 12","1a4vu2",4,"continue","",8961,8955.8,8961,8961,8955.8,8961,1,8961,0,0,NA,"Click To Continue","Continue Button",2,"object-2466","Task Instructions",NA,"SUPPRF54993"
"6",1706640682337,"30/01/2024 18:51:22",1706640682337,0,"30/01/2024 18:51:22",160285,9,"task-v7r7",NA,34622904,10237689,NA,"complete",NA,"65b9409896d6a5850d7296a9","computer","Desktop or Laptop","Windows 10","Chrome 120.0.0.0","1536x864","1536x695",NA,NA,0,"Task Introduction and Instructions (re-introduce video and audio) (Clone)",3,"GHFIEJDACB","Passed AC2","","Spreadsheet1",1,"Task Instructions","Screen 13","q9vwda",5,"continue","",7897.99999999999,7889.39999999999,7897.99999999999,7897.99999999999,7889.39999999999,7897.99999999999,1,7897.99999999999,0,0,NA,"Click To Continue","Continue Button",2,"object-2989","Task Instructions",NA,"SUPPRF54993"
"7",1706640685839,"30/01/2024 18:51:25",1706640685839,0,"30/01/2024 18:51:25",160285,9,"task-v7r7",NA,34622904,10237689,NA,"complete",NA,"65b9409896d6a5850d7296a9","computer","Desktop or Laptop","Windows 10","Chrome 120.0.0.0","1536x864","1536x695",NA,NA,0,"Task Introduction and Instructions (re-introduce video and audio) (Clone)",3,"GHFIEJDACB","Passed AC2","","Spreadsheet1",1,"Task Instructions","Screen 11","oyulb7",6,"continue","",3510.39999990464,3507.4,3510.39999990464,3510.39999990464,3507.4,3510.39999990464,1,3510.39999990464,0,0,NA,"Click To Continue","Continue Button",2,"object-52","Task Instructions",NA,"SUPPRF54993"
"8",1706640688823,"30/01/2024 18:51:28",1706640688823,0,"30/01/2024 18:51:28",160285,9,"task-v7r7",NA,34622904,10237689,NA,"complete",NA,"65b9409896d6a5850d7296a9","computer","Desktop or Laptop","Windows 10","Chrome 120.0.0.0","1536x864","1536x695",NA,NA,0,"Task Introduction and Instructions (re-introduce video and audio) (Clone)",3,"GHFIEJDACB","Passed AC2","","Spreadsheet1",1,"Task Instructions","Screen 4","spepx9",7,"continue","",2986.69999995232,2982.8,2986.69999995232,2986.69999995232,2982.8,2986.69999995232,1,2986.69999995232,0,0,NA,"Click To Continue","Continue Button",2,"object-9","Task Instructions",NA,"SUPPRF54993"
"9",1706640691454,"30/01/2024 18:51:31",1706640691454,0,"30/01/2024 18:51:31",160285,9,"task-v7r7",NA,34622904,10237689,NA,"complete",NA,"65b9409896d6a5850d7296a9","computer","Desktop or Laptop","Windows 10","Chrome 120.0.0.0","1536x864","1536x695",NA,NA,0,"Task Introduction and Instructions (re-introduce video and audio) (Clone)",3,"GHFIEJDACB","Passed AC2","","Spreadsheet1",1,"Task Instructions","Screen 5","8nvnao",8,"continue","",2635.39999995231,2632,2635.39999995231,2635.39999995231,2632,2635.39999995231,1,2635.39999995231,0,0,NA,"Click To Continue","Continue Button",2,"object-44","Task Instructions",NA,"SUPPRF54993"
"10",1706640691457,"30/01/2024 18:51:31",1706640691457,0,"30/01/2024 18:51:31",160285,9,"task-v7r7",NA,34622904,10237689,NA,"complete",NA,"65b9409896d6a5850d7296a9","computer","Desktop or Laptop","Windows 10","Chrome 120.0.0.0","1536x864","1536x695",NA,NA,0,"Task Introduction and Instructions (re-introduce video and audio) (Clone)",3,"GHFIEJDACB","Passed AC2","","Spreadsheet1",NA,"","","",NA,"5","END",NA,NA,NA,NA,NA,NA,0,NA,NA,NA,NA,"","",NA,"","",NA,"SUPPRF54993"
"1",1706641269303,"30/01/2024 19:01:09",1706641269303,0,"30/01/2024 19:01:09",160285,9,"task-v7r7",NA,34623254,10237746,NA,"complete",NA,"65b93edcda85461a21b462d5","computer","Desktop or Laptop","Windows 10","Chrome 121.0.0.0","1536x864","1536x730",NA,NA,0,"Task Introduction and Instructions (re-introduce video and audio) (Clone)",3,"IJHAGBFCED","Passed AC2","","Spreadsheet1",NA,"","","",NA,"5","BEGIN",NA,NA,NA,NA,NA,NA,0,NA,NA,NA,NA,"","",NA,"","",NA,"SUPPRF33270"
"2",1706641272799,"30/01/2024 19:01:12",1706641272799,0,"30/01/2024 19:01:12",160285,9,"task-v7r7",NA,34623254,10237746,NA,"complete",NA,"65b93edcda85461a21b462d5","computer","Desktop or Laptop","Windows 10","Chrome 121.0.0.0","1536x864","1536x730",NA,NA,0,"Task Introduction and Instructions (re-introduce video and audio) (Clone)",3,"IJHAGBFCED","Passed AC2","","Spreadsheet1",1,"Task Instructions","Screen 1","anr7sn",1,"continue","",3369.59999999404,3366.7,3369.59999999404,3369.59999999404,3366.7,3369.59999999404,1,3369.59999999404,0,0,NA,"Click To Continue","Continue Button",3,"object-60","Task Instructions",NA,"SUPPRF33270"
"3",1706641286488,"30/01/2024 19:01:26",1706641286488,0,"30/01/2024 19:01:26",160285,9,"task-v7r7",NA,34623254,10237746,NA,"complete",NA,"65b93edcda85461a21b462d5","computer","Desktop or Laptop","Windows 10","Chrome 121.0.0.0","1536x864","1536x730",NA,NA,0,"Task Introduction and Instructions (re-introduce video and audio) (Clone)",3,"IJHAGBFCED","Passed AC2","","Spreadsheet1",1,"Task Instructions","Screen 2","ce2tc8",2,"continue","",13692.200000006,13683.3,13692.200000006,13692.200000006,13683.3,13692.200000006,1,13692.200000006,0,0,NA,"Click To Continue","Continue Button",3,"object-59","Task Instructions",NA,"SUPPRF33270"
"4",1706641295102,"30/01/2024 19:01:35",1706641295102,0,"30/01/2024 19:01:35",160285,9,"task-v7r7",NA,34623254,10237746,NA,"complete",NA,"65b93edcda85461a21b462d5","computer","Desktop or Laptop","Windows 10","Chrome 121.0.0.0","1536x864","1536x730",NA,NA,0,"Task Introduction and Instructions (re-introduce video and audio) (Clone)",3,"IJHAGBFCED","Passed AC2","","Spreadsheet1",1,"Task Instructions","Screen 3","1qtc8v",3,"continue","",8622.90000000596,8616.5,8622.90000000596,8622.90000000596,8616.5,8622.90000000596,1,8622.90000000596,0,0,NA,"Click To Continue","Continue Button",2,"object-2983","Task Instructions",NA,"SUPPRF33270"
"5",1706641300972,"30/01/2024 19:01:40",1706641300972,0,"30/01/2024 19:01:40",160285,9,"task-v7r7",NA,34623254,10237746,NA,"complete",NA,"65b93edcda85461a21b462d5","computer","Desktop or Laptop","Windows 10","Chrome 121.0.0.0","1536x864","1536x730",NA,NA,0,"Task Introduction and Instructions (re-introduce video and audio) (Clone)",3,"IJHAGBFCED","Passed AC2","","Spreadsheet1",1,"Task Instructions","Screen 12","1a4vu2",4,"continue","",5875.79999998212,5866.6,5875.79999998212,5875.79999998212,5866.6,5875.79999998212,1,5875.79999998212,0,0,NA,"Click To Continue","Continue Button",2,"object-2466","Task Instructions",NA,"SUPPRF33270"
"6",1706641305991,"30/01/2024 19:01:45",1706641305991,0,"30/01/2024 19:01:45",160285,9,"task-v7r7",NA,34623254,10237746,NA,"complete",NA,"65b93edcda85461a21b462d5","computer","Desktop or Laptop","Windows 10","Chrome 121.0.0.0","1536x864","1536x730",NA,NA,0,"Task Introduction and Instructions (re-introduce video and audio) (Clone)",3,"IJHAGBFCED","Passed AC2","","Spreadsheet1",1,"Task Instructions","Screen 13","q9vwda",5,"continue","",5028.99999999404,5016.3,5028.99999999404,5028.99999999404,5016.3,5028.99999999404,1,5028.99999999404,0,0,NA,"Click To Continue","Continue Button",2,"object-2989","Task Instructions",NA,"SUPPRF33270"
"7",1706641308770,"30/01/2024 19:01:48",1706641308770,0,"30/01/2024 19:01:48",160285,9,"task-v7r7",NA,34623254,10237746,NA,"complete",NA,"65b93edcda85461a21b462d5","computer","Desktop or Laptop","Windows 10","Chrome 121.0.0.0","1536x864","1536x730",NA,NA,0,"Task Introduction and Instructions (re-introduce video and audio) (Clone)",3,"IJHAGBFCED","Passed AC2","","Spreadsheet1",1,"Task Instructions","Screen 11","oyulb7",6,"continue","",2791.29999998808,2783.6,2791.29999998808,2791.29999998808,2783.6,2791.29999998808,1,2791.29999998808,0,0,NA,"Click To Continue","Continue Button",2,"object-52","Task Instructions",NA,"SUPPRF33270"
"8",1706641312604,"30/01/2024 19:01:52",1706641312604,0,"30/01/2024 19:01:52",160285,9,"task-v7r7",NA,34623254,10237746,NA,"complete",NA,"65b93edcda85461a21b462d5","computer","Desktop or Laptop","Windows 10","Chrome 121.0.0.0","1536x864","1536x730",NA,NA,0,"Task Introduction and Instructions (re-introduce video and audio) (Clone)",3,"IJHAGBFCED","Passed AC2","","Spreadsheet1",1,"Task Instructions","Screen 4","spepx9",7,"continue","",3842.09999999404,3833.3,3842.09999999404,3842.09999999404,3833.3,3842.09999999404,1,3842.09999999404,0,0,NA,"Click To Continue","Continue Button",2,"object-9","Task Instructions",NA,"SUPPRF33270"
"9",1706641315091,"30/01/2024 19:01:55",1706641315091,0,"30/01/2024 19:01:55",160285,9,"task-v7r7",NA,34623254,10237746,NA,"complete",NA,"65b93edcda85461a21b462d5","computer","Desktop or Laptop","Windows 10","Chrome 121.0.0.0","1536x864","1536x730",NA,NA,0,"Task Introduction and Instructions (re-introduce video and audio) (Clone)",3,"IJHAGBFCED","Passed AC2","","Spreadsheet1",1,"Task Instructions","Screen 5","8nvnao",8,"continue","",2495.7,2483.1,2495.7,2495.7,2483.1,2495.7,1,2495.7,0,0,NA,"Click To Continue","Continue Button",2,"object-44","Task Instructions",NA,"SUPPRF33270"
"10",1706641315094,"30/01/2024 19:01:55",1706641315094,0,"30/01/2024 19:01:55",160285,9,"task-v7r7",NA,34623254,10237746,NA,"complete",NA,"65b93edcda85461a21b462d5","computer","Desktop or Laptop","Windows 10","Chrome 121.0.0.0","1536x864","1536x730",NA,NA,0,"Task Introduction and Instructions (re-introduce video and audio) (Clone)",3,"IJHAGBFCED","Passed AC2","","Spreadsheet1",NA,"","","",NA,"5","END",NA,NA,NA,NA,NA,NA,0,NA,NA,NA,NA,"","",NA,"","",NA,"SUPPRF33270"
"1",1706641693609,"30/01/2024 19:08:13",1706645293609,1,"30/01/2024 21:08:13",160285,9,"task-v7r7",NA,34623449,10237831,NA,"complete",NA,"65b94525c4cfa70acd2aff3b","computer","Desktop or Laptop","Windows 10","Chrome 120.0.0.0","1366x768","1366x651",NA,NA,0,"Task Introduction and Instructions (re-introduce video and audio) (Clone)",3,"JAIBHCGDFE","Passed AC2","","Spreadsheet1",NA,"","","",NA,"5","BEGIN",NA,NA,NA,NA,NA,NA,0,NA,NA,NA,NA,"","",NA,"","",NA,"SUPPRF83747"
"2",1706641700524,"30/01/2024 19:08:20",1706645300524,1,"30/01/2024 21:08:20",160285,9,"task-v7r7",NA,34623449,10237831,NA,"complete",NA,"65b94525c4cfa70acd2aff3b","computer","Desktop or Laptop","Windows 10","Chrome 120.0.0.0","1366x768","1366x651",NA,NA,0,"Task Introduction and Instructions (re-introduce video and audio) (Clone)",3,"JAIBHCGDFE","Passed AC2","","Spreadsheet1",1,"Task Instructions","Screen 1","anr7sn",1,"continue","",6166.7,6149.9,6166.7,6166.7,6149.9,6166.7,1,6166.7,0,0,NA,"Click To Continue","Continue Button",3,"object-60","Task Instructions",NA,"SUPPRF83747"
"3",1706641721592,"30/01/2024 19:08:41",1706645321592,1,"30/01/2024 21:08:41",160285,9,"task-v7r7",NA,34623449,10237831,NA,"complete",NA,"65b94525c4cfa70acd2aff3b","computer","Desktop or Laptop","Windows 10","Chrome 120.0.0.0","1366x768","1366x651",NA,NA,0,"Task Introduction and Instructions (re-introduce video and audio) (Clone)",3,"JAIBHCGDFE","Passed AC2","","Spreadsheet1",1,"Task Instructions","Screen 2","ce2tc8",2,"continue","",21100.4999999998,21098.7,21100.4999999998,21100.4999999998,21098.7,21100.4999999998,1,21100.4999999998,0,0,NA,"Click To Continue","Continue Button",3,"object-59","Task Instructions",NA,"SUPPRF83747"
"4",1706641732030,"30/01/2024 19:08:52",1706645332030,1,"30/01/2024 21:08:52",160285,9,"task-v7r7",NA,34623449,10237831,NA,"complete",NA,"65b94525c4cfa70acd2aff3b","computer","Desktop or Laptop","Windows 10","Chrome 120.0.0.0","1366x768","1366x651",NA,NA,0,"Task Introduction and Instructions (re-introduce video and audio) (Clone)",3,"JAIBHCGDFE","Passed AC2","","Spreadsheet1",1,"Task Instructions","Screen 3","1qtc8v",3,"continue","",10439.2999999998,10433.5,10439.2999999998,10439.2999999998,10433.5,10439.2999999998,1,10439.2999999998,0,0,NA,"Click To Continue","Continue Button",2,"object-2983","Task Instructions",NA,"SUPPRF83747"
"5",1706641744462,"30/01/2024 19:09:04",1706645344462,1,"30/01/2024 21:09:04",160285,9,"task-v7r7",NA,34623449,10237831,NA,"complete",NA,"65b94525c4cfa70acd2aff3b","computer","Desktop or Laptop","Windows 10","Chrome 120.0.0.0","1366x768","1366x651",NA,NA,0,"Task Introduction and Instructions (re-introduce video and audio) (Clone)",3,"JAIBHCGDFE","Passed AC2","","Spreadsheet1",1,"Task Instructions","Screen 12","1a4vu2",4,"continue","",12438.5999999999,12432.3,12438.5999999999,12438.5999999999,12432.3,12438.5999999999,1,12438.5999999999,0,0,NA,"Click To Continue","Continue Button",2,"object-2466","Task Instructions",NA,"SUPPRF83747"
"6",1706641757081,"30/01/2024 19:09:17",1706645357081,1,"30/01/2024 21:09:17",160285,9,"task-v7r7",NA,34623449,10237831,NA,"complete",NA,"65b94525c4cfa70acd2aff3b","computer","Desktop or Laptop","Windows 10","Chrome 120.0.0.0","1366x768","1366x651",NA,NA,0,"Task Introduction and Instructions (re-introduce video and audio) (Clone)",3,"JAIBHCGDFE","Passed AC2","","Spreadsheet1",1,"Task Instructions","Screen 13","q9vwda",5,"continue","",12625.2,12616.1,12625.2,12625.2,12616.1,12625.2,1,12625.2,0,0,NA,"Click To Continue","Continue Button",2,"object-2989","Task Instructions",NA,"SUPPRF83747"
"7",1706641761051,"30/01/2024 19:09:21",1706645361051,1,"30/01/2024 21:09:21",160285,9,"task-v7r7",NA,34623449,10237831,NA,"complete",NA,"65b94525c4cfa70acd2aff3b","computer","Desktop or Laptop","Windows 10","Chrome 120.0.0.0","1366x768","1366x651",NA,NA,0,"Task Introduction and Instructions (re-introduce video and audio) (Clone)",3,"JAIBHCGDFE","Passed AC2","","Spreadsheet1",1,"Task Instructions","Screen 11","oyulb7",6,"continue","",3979.60000000001,3966.40000000001,3979.60000000001,3979.60000000001,3966.40000000001,3979.60000000001,1,3979.60000000001,0,0,NA,"Click To Continue","Continue Button",2,"object-52","Task Instructions",NA,"SUPPRF83747"
"8",1706641765077,"30/01/2024 19:09:25",1706645365077,1,"30/01/2024 21:09:25",160285,9,"task-v7r7",NA,34623449,10237831,NA,"complete",NA,"65b94525c4cfa70acd2aff3b","computer","Desktop or Laptop","Windows 10","Chrome 120.0.0.0","1366x768","1366x651",NA,NA,0,"Task Introduction and Instructions (re-introduce video and audio) (Clone)",3,"JAIBHCGDFE","Passed AC2","","Spreadsheet1",1,"Task Instructions","Screen 4","spepx9",7,"continue","",4038.79999999986,4032.89999999999,4038.79999999986,4038.79999999986,4032.89999999999,4038.79999999986,1,4038.79999999986,0,0,NA,"Click To Continue","Continue Button",2,"object-9","Task Instructions",NA,"SUPPRF83747"
"9",1706641770453,"30/01/2024 19:09:30",1706645370453,1,"30/01/2024 21:09:30",160285,9,"task-v7r7",NA,34623449,10237831,NA,"complete",NA,"65b94525c4cfa70acd2aff3b","computer","Desktop or Laptop","Windows 10","Chrome 120.0.0.0","1366x768","1366x651",NA,NA,0,"Task Introduction and Instructions (re-introduce video and audio) (Clone)",3,"JAIBHCGDFE","Passed AC2","","Spreadsheet1",1,"Task Instructions","Screen 5","8nvnao",8,"continue","",5382.49999999996,5366.5,5382.49999999996,5382.49999999996,5366.5,5382.49999999996,1,5382.49999999996,0,0,NA,"Click To Continue","Continue Button",2,"object-44","Task Instructions",NA,"SUPPRF83747"
"10",1706641770462,"30/01/2024 19:09:30",1706645370462,1,"30/01/2024 21:09:30",160285,9,"task-v7r7",NA,34623449,10237831,NA,"complete",NA,"65b94525c4cfa70acd2aff3b","computer","Desktop or Laptop","Windows 10","Chrome 120.0.0.0","1366x768","1366x651",NA,NA,0,"Task Introduction and Instructions (re-introduce video and audio) (Clone)",3,"JAIBHCGDFE","Passed AC2","","Spreadsheet1",NA,"","","",NA,"5","END",NA,NA,NA,NA,NA,NA,0,NA,NA,NA,NA,"","",NA,"","",NA,"SUPPRF83747"
"1",1706642004155,"30/01/2024 19:13:24",1706642004155,0,"30/01/2024 19:13:24",160285,9,"task-v7r7",NA,34623610,10237906,NA,"complete",NA,"65b9479756b8a36db50cb6da","computer","Desktop or Laptop","Mac OS 10.15.7","Chrome 120.0.0.0","1440x900","1440x815",NA,NA,0,"Task Introduction and Instructions (re-introduce video and audio) (Clone)",3,"ABJCIDHEGF","Passed AC2","","Spreadsheet1",NA,"","","",NA,"5","BEGIN",NA,NA,NA,NA,NA,NA,0,NA,NA,NA,NA,"","",NA,"","",NA,"SUPPRF08503"
"2",1706642008160,"30/01/2024 19:13:28",1706642008160,0,"30/01/2024 19:13:28",160285,9,"task-v7r7",NA,34623610,10237906,NA,"complete",NA,"65b9479756b8a36db50cb6da","computer","Desktop or Laptop","Mac OS 10.15.7","Chrome 120.0.0.0","1440x900","1440x815",NA,NA,0,"Task Introduction and Instructions (re-introduce video and audio) (Clone)",3,"ABJCIDHEGF","Passed AC2","","Spreadsheet1",1,"Task Instructions","Screen 1","anr7sn",1,"continue","",3934.09999999998,3927.2,3934.09999999998,3934.09999999998,3927.2,3934.09999999998,1,3934.09999999998,0,0,NA,"Click To Continue","Continue Button",3,"object-60","Task Instructions",NA,"SUPPRF08503"
"3",1706642013572,"30/01/2024 19:13:33",1706642013572,0,"30/01/2024 19:13:33",160285,9,"task-v7r7",NA,34623610,10237906,NA,"complete",NA,"65b9479756b8a36db50cb6da","computer","Desktop or Laptop","Mac OS 10.15.7","Chrome 120.0.0.0","1440x900","1440x815",NA,NA,0,"Task Introduction and Instructions (re-introduce video and audio) (Clone)",3,"ABJCIDHEGF","Passed AC2","","Spreadsheet1",1,"Task Instructions","Screen 2","ce2tc8",2,"continue","",5418.89999999998,5414.4,5418.89999999998,5418.89999999998,5414.4,5418.89999999998,1,5418.89999999998,0,0,NA,"Click To Continue","Continue Button",3,"object-59","Task Instructions",NA,"SUPPRF08503"
"4",1706642018542,"30/01/2024 19:13:38",1706642018542,0,"30/01/2024 19:13:38",160285,9,"task-v7r7",NA,34623610,10237906,NA,"complete",NA,"65b9479756b8a36db50cb6da","computer","Desktop or Laptop","Mac OS 10.15.7","Chrome 120.0.0.0","1440x900","1440x815",NA,NA,0,"Task Introduction and Instructions (re-introduce video and audio) (Clone)",3,"ABJCIDHEGF","Passed AC2","","Spreadsheet1",1,"Task Instructions","Screen 3","1qtc8v",3,"continue","",4974.59999999995,4963.4,4974.59999999995,4974.59999999995,4963.4,4974.59999999995,1,4974.59999999995,0,0,NA,"Click To Continue","Continue Button",2,"object-2983","Task Instructions",NA,"SUPPRF08503"
"5",1706642021703,"30/01/2024 19:13:41",1706642021703,0,"30/01/2024 19:13:41",160285,9,"task-v7r7",NA,34623610,10237906,NA,"complete",NA,"65b9479756b8a36db50cb6da","computer","Desktop or Laptop","Mac OS 10.15.7","Chrome 120.0.0.0","1440x900","1440x815",NA,NA,0,"Task Introduction and Instructions (re-introduce video and audio) (Clone)",3,"ABJCIDHEGF","Passed AC2","","Spreadsheet1",1,"Task Instructions","Screen 12","1a4vu2",4,"continue","",3172.09999999998,3158.3,3172.09999999998,3172.09999999998,3158.3,3172.09999999998,1,3172.09999999998,0,0,NA,"Click To Continue","Continue Button",2,"object-2466","Task Instructions",NA,"SUPPRF08503"
"6",1706642027006,"30/01/2024 19:13:47",1706642027006,0,"30/01/2024 19:13:47",160285,9,"task-v7r7",NA,34623610,10237906,NA,"complete",NA,"65b9479756b8a36db50cb6da","computer","Desktop or Laptop","Mac OS 10.15.7","Chrome 120.0.0.0","1440x900","1440x815",NA,NA,0,"Task Introduction and Instructions (re-introduce video and audio) (Clone)",3,"ABJCIDHEGF","Passed AC2","","Spreadsheet1",1,"Task Instructions","Screen 13","q9vwda",5,"continue","",5316.79999999998,5314.4,5316.79999999998,5316.79999999998,5314.4,5316.79999999998,1,5316.79999999998,0,0,NA,"Click To Continue","Continue Button",2,"object-2989","Task Instructions",NA,"SUPPRF08503"
"7",1706642029695,"30/01/2024 19:13:49",1706642029695,0,"30/01/2024 19:13:49",160285,9,"task-v7r7",NA,34623610,10237906,NA,"complete",NA,"65b9479756b8a36db50cb6da","computer","Desktop or Laptop","Mac OS 10.15.7","Chrome 120.0.0.0","1440x900","1440x815",NA,NA,0,"Task Introduction and Instructions (re-introduce video and audio) (Clone)",3,"ABJCIDHEGF","Passed AC2","","Spreadsheet1",1,"Task Instructions","Screen 11","oyulb7",6,"continue","",2690.4,2673.7,2690.4,2690.4,2673.7,2690.4,1,2690.4,0,0,NA,"Click To Continue","Continue Button",2,"object-52","Task Instructions",NA,"SUPPRF08503"
"8",1706642032480,"30/01/2024 19:13:52",1706642032480,0,"30/01/2024 19:13:52",160285,9,"task-v7r7",NA,34623610,10237906,NA,"complete",NA,"65b9479756b8a36db50cb6da","computer","Desktop or Laptop","Mac OS 10.15.7","Chrome 120.0.0.0","1440x900","1440x815",NA,NA,0,"Task Introduction and Instructions (re-introduce video and audio) (Clone)",3,"ABJCIDHEGF","Passed AC2","","Spreadsheet1",1,"Task Instructions","Screen 4","spepx9",7,"continue","",2802.99999999991,2790.8,2802.99999999991,2802.99999999991,2790.8,2802.99999999991,1,2802.99999999991,0,0,NA,"Click To Continue","Continue Button",2,"object-9","Task Instructions",NA,"SUPPRF08503"
"9",1706642036288,"30/01/2024 19:13:56",1706642036288,0,"30/01/2024 19:13:56",160285,9,"task-v7r7",NA,34623610,10237906,NA,"complete",NA,"65b9479756b8a36db50cb6da","computer","Desktop or Laptop","Mac OS 10.15.7","Chrome 120.0.0.0","1440x900","1440x815",NA,NA,0,"Task Introduction and Instructions (re-introduce video and audio) (Clone)",3,"ABJCIDHEGF","Passed AC2","","Spreadsheet1",1,"Task Instructions","Screen 5","8nvnao",8,"continue","",3820.49999999995,3810.4,3820.49999999995,3820.49999999995,3810.4,3820.49999999995,1,3820.49999999995,0,0,NA,"Click To Continue","Continue Button",2,"object-44","Task Instructions",NA,"SUPPRF08503"
"10",1706642036291,"30/01/2024 19:13:56",1706642036291,0,"30/01/2024 19:13:56",160285,9,"task-v7r7",NA,34623610,10237906,NA,"complete",NA,"65b9479756b8a36db50cb6da","computer","Desktop or Laptop","Mac OS 10.15.7","Chrome 120.0.0.0","1440x900","1440x815",NA,NA,0,"Task Introduction and Instructions (re-introduce video and audio) (Clone)",3,"ABJCIDHEGF","Passed AC2","","Spreadsheet1",NA,"","","",NA,"5","END",NA,NA,NA,NA,NA,NA,0,NA,NA,NA,NA,"","",NA,"","",NA,"SUPPRF08503"
"1",1706642745645,"30/01/2024 19:25:45",1706617545645,-7,"30/01/2024 05:25:45",160285,9,"task-v7r7",NA,34623921,10237977,NA,"complete",NA,"65b949be4042a1bfcfc85306","computer","Desktop or Laptop","Chromium OS 14541.0.0","Chrome 120.0.0.0","1517x852","1517x731",NA,NA,0,"Task Introduction and Instructions (re-introduce video and audio) (Clone)",3,"DECFBGAHJI","Passed AC2","","Spreadsheet1",NA,"","","",NA,"5","BEGIN",NA,NA,NA,NA,NA,NA,0,NA,NA,NA,NA,"","",NA,"","",NA,"SUPPRF72240"
"2",1706642750527,"30/01/2024 19:25:50",1706617550527,-7,"30/01/2024 05:25:50",160285,9,"task-v7r7",NA,34623921,10237977,NA,"complete",NA,"65b949be4042a1bfcfc85306","computer","Desktop or Laptop","Chromium OS 14541.0.0","Chrome 120.0.0.0","1517x852","1517x731",NA,NA,0,"Task Introduction and Instructions (re-introduce video and audio) (Clone)",3,"DECFBGAHJI","Passed AC2","","Spreadsheet1",1,"Task Instructions","Screen 1","anr7sn",1,"continue","",4137.6,4120.9,4137.6,4137.6,4120.9,4137.6,1,4137.6,0,0,NA,"Click To Continue","Continue Button",3,"object-60","Task Instructions",NA,"SUPPRF72240"
"3",1706642759407,"30/01/2024 19:25:59",1706617559407,-7,"30/01/2024 05:25:59",160285,9,"task-v7r7",NA,34623921,10237977,NA,"complete",NA,"65b949be4042a1bfcfc85306","computer","Desktop or Laptop","Chromium OS 14541.0.0","Chrome 120.0.0.0","1517x852","1517x731",NA,NA,0,"Task Introduction and Instructions (re-introduce video and audio) (Clone)",3,"DECFBGAHJI","Passed AC2","","Spreadsheet1",1,"Task Instructions","Screen 2","ce2tc8",2,"continue","",8899.2,8882.6,8899.2,8899.2,8882.6,8899.2,1,8899.2,0,0,NA,"Click To Continue","Continue Button",3,"object-59","Task Instructions",NA,"SUPPRF72240"
"4",1706642767099,"30/01/2024 19:26:07",1706617567099,-7,"30/01/2024 05:26:07",160285,9,"task-v7r7",NA,34623921,10237977,NA,"complete",NA,"65b949be4042a1bfcfc85306","computer","Desktop or Laptop","Chromium OS 14541.0.0","Chrome 120.0.0.0","1517x852","1517x731",NA,NA,0,"Task Introduction and Instructions (re-introduce video and audio) (Clone)",3,"DECFBGAHJI","Passed AC2","","Spreadsheet1",1,"Task Instructions","Screen 3","1qtc8v",3,"continue","",7710.39999999851,7700.6,7710.39999999851,7710.39999999851,7700.6,7710.39999999851,1,7710.39999999851,0,0,NA,"Click To Continue","Continue Button",2,"object-2983","Task Instructions",NA,"SUPPRF72240"
"5",1706642774579,"30/01/2024 19:26:14",1706617574579,-7,"30/01/2024 05:26:14",160285,9,"task-v7r7",NA,34623921,10237977,NA,"complete",NA,"65b949be4042a1bfcfc85306","computer","Desktop or Laptop","Chromium OS 14541.0.0","Chrome 120.0.0.0","1517x852","1517x731",NA,NA,0,"Task Introduction and Instructions (re-introduce video and audio) (Clone)",3,"DECFBGAHJI","Passed AC2","","Spreadsheet1",1,"Task Instructions","Screen 12","1a4vu2",4,"continue","",7489.20000000447,7484,7489.20000000447,7489.20000000447,7484,7489.20000000447,1,7489.20000000447,0,0,NA,"Click To Continue","Continue Button",2,"object-2466","Task Instructions",NA,"SUPPRF72240"
