"Event.Index","UTC.Timestamp","UTC.Date.and.Time","Local.Timestamp","Local.Timezone","Local.Date.and.Time","Experiment.ID","Experiment.Version","Tree.Node.Key","Repeat.Key","Schedule.ID","Participant.Private.ID","Participant.Starting.Group","Participant.Status","Participant.Completion.Code","Participant.External.Session.ID","Participant.Device.Type","Participant.Device","Participant.OS","Participant.Browser","Participant.Monitor.Size","Participant.Viewport.Size","Checkpoint","Room.ID","Room.Order","Task.Name","Task.Version","order.ot79","branch.g31k","branch.5gtn","Spreadsheet","Trial.Number","Display","Screen","Screen.ID","Screen.Counter","Response.Type","Response","Onset.Time","Clock.Time","Reaction.Time","Absolute.Onset.Time","Absolute.Clock.Time","Absolute.Reaction.Time","Correct","Response.Onset","Response.Duration","Proportion","Tag","Component.Name","Object.Name","Object.Number","Object.ID","Spreadsheet..display","Manipulation..Spreadsheet","Random_ID"
"1",1708106360882,"16/02/2024 17:59:20",1708109960882,1,"16/02/2024 19:59:20",166635,2,"task-v7r7",NA,35235371,10409770,NA,"complete",NA,"65cf9ed3adac672e940732b5","computer","Desktop or Laptop","Linux x86_64","Chrome 121.0.0.0","1360x768","1366x620",NA,NA,0,"Task Introduction and Instructions (re-introduce video and audio) (Clone)",3,"CDBEAFJGIH","Passed AC2","","Spreadsheet1",NA,"","","",NA,"5","BEGIN",NA,NA,NA,NA,NA,NA,0,NA,NA,NA,NA,"","",NA,"","",NA,"SUPPRF16119"
"2",1708106365849,"16/02/2024 17:59:25",1708109965849,1,"16/02/2024 19:59:25",166635,2,"task-v7r7",NA,35235371,10409770,NA,"complete",NA,"65cf9ed3adac672e940732b5","computer","Desktop or Laptop","Linux x86_64","Chrome 121.0.0.0","1360x768","1366x620",NA,NA,0,"Task Introduction and Instructions (re-introduce video and audio) (Clone)",3,"CDBEAFJGIH","Passed AC2","","Spreadsheet1",1,"Task Instructions","Screen 1","anr7sn",1,"continue","",4555.99999999702,4540.3,4555.99999999702,4555.99999999702,4540.3,4555.99999999702,1,4555.99999999702,0,0,NA,"Click To Continue","Continue Button",3,"object-60","Task Instructions",NA,"SUPPRF16119"
"3",1708106378217,"16/02/2024 17:59:38",1708109978217,1,"16/02/2024 19:59:38",166635,2,"task-v7r7",NA,35235371,10409770,NA,"complete",NA,"65cf9ed3adac672e940732b5","computer","Desktop or Laptop","Linux x86_64","Chrome 121.0.0.0","1360x768","1366x620",NA,NA,0,"Task Introduction and Instructions (re-introduce video and audio) (Clone)",3,"CDBEAFJGIH","Passed AC2","","Spreadsheet1",1,"Task Instructions","Screen 2","ce2tc8",2,"continue","",12384.2,12367.4,12384.2,12384.2,12367.4,12384.2,1,12384.2,0,0,NA,"Click To Continue","Continue Button",3,"object-59","Task Instructions",NA,"SUPPRF16119"
"4",1708106396061,"16/02/2024 17:59:56",1708109996061,1,"16/02/2024 19:59:56",166635,2,"task-v7r7",NA,35235371,10409770,NA,"complete",NA,"65cf9ed3adac672e940732b5","computer","Desktop or Laptop","Linux x86_64","Chrome 121.0.0.0","1360x768","1366x620",NA,NA,0,"Task Introduction and Instructions (re-introduce video and audio) (Clone)",3,"CDBEAFJGIH","Passed AC2","","Spreadsheet1",1,"Task Instructions","Screen 3","1qtc8v",3,"continue","",17860.6999999955,17850.2,17860.6999999955,17860.6999999955,17850.2,17860.6999999955,1,17860.6999999955,0,0,NA,"Click To Continue","Continue Button",2,"object-2983","Task Instructions",NA,"SUPPRF16119"
"5",1708106407908,"16/02/2024 18:00:07",1708110007908,1,"16/02/2024 20:00:07",166635,2,"task-v7r7",NA,35235371,10409770,NA,"complete",NA,"65cf9ed3adac672e940732b5","computer","Desktop or Laptop","Linux x86_64","Chrome 121.0.0.0","1360x768","1366x620",NA,NA,0,"Task Introduction and Instructions (re-introduce video and audio) (Clone)",3,"CDBEAFJGIH","Passed AC2","","Spreadsheet1",1,"Task Instructions","Screen 12","1a4vu2",4,"continue","",11857.6999999985,11853.3,11857.6999999985,11857.6999999985,11853.3,11857.6999999985,1,11857.6999999985,0,0,NA,"Click To Continue","Continue Button",2,"object-2466","Task Instructions",NA,"SUPPRF16119"
"6",1708106417221,"16/02/2024 18:00:17",1708110017221,1,"16/02/2024 20:00:17",166635,2,"task-v7r7",NA,35235371,10409770,NA,"complete",NA,"65cf9ed3adac672e940732b5","computer","Desktop or Laptop","Linux x86_64","Chrome 121.0.0.0","1360x768","1366x620",NA,NA,0,"Task Introduction and Instructions (re-introduce video and audio) (Clone)",3,"CDBEAFJGIH","Passed AC2","","Spreadsheet1",1,"Task Instructions","Screen 13","q9vwda",5,"continue","",9317.69999999553,9305.9,9317.69999999553,9317.69999999553,9305.9,9317.69999999553,1,9317.69999999553,0,0,NA,"Click To Continue","Continue Button",2,"object-2989","Task Instructions",NA,"SUPPRF16119"
"7",1708106420528,"16/02/2024 18:00:20",1708110020528,1,"16/02/2024 20:00:20",166635,2,"task-v7r7",NA,35235371,10409770,NA,"complete",NA,"65cf9ed3adac672e940732b5","computer","Desktop or Laptop","Linux x86_64","Chrome 121.0.0.0","1360x768","1366x620",NA,NA,0,"Task Introduction and Instructions (re-introduce video and audio) (Clone)",3,"CDBEAFJGIH","Passed AC2","","Spreadsheet1",1,"Task Instructions","Screen 11","oyulb7",6,"continue","",3318.49999999851,3306,3318.49999999851,3318.49999999851,3306,3318.49999999851,1,3318.49999999851,0,0,NA,"Click To Continue","Continue Button",2,"object-52","Task Instructions",NA,"SUPPRF16119"
"8",1708106428275,"16/02/2024 18:00:28",1708110028275,1,"16/02/2024 20:00:28",166635,2,"task-v7r7",NA,35235371,10409770,NA,"complete",NA,"65cf9ed3adac672e940732b5","computer","Desktop or Laptop","Linux x86_64","Chrome 121.0.0.0","1360x768","1366x620",NA,NA,0,"Task Introduction and Instructions (re-introduce video and audio) (Clone)",3,"CDBEAFJGIH","Passed AC2","","Spreadsheet1",1,"Task Instructions","Screen 4","spepx9",7,"continue","",7759.49999999851,7752.7,7759.49999999851,7759.49999999851,7752.7,7759.49999999851,1,7759.49999999851,0,0,NA,"Click To Continue","Continue Button",2,"object-9","Task Instructions",NA,"SUPPRF16119"
"9",1708106431655,"16/02/2024 18:00:31",1708110031655,1,"16/02/2024 20:00:31",166635,2,"task-v7r7",NA,35235371,10409770,NA,"complete",NA,"65cf9ed3adac672e940732b5","computer","Desktop or Laptop","Linux x86_64","Chrome 121.0.0.0","1360x768","1366x620",NA,NA,0,"Task Introduction and Instructions (re-introduce video and audio) (Clone)",3,"CDBEAFJGIH","Passed AC2","","Spreadsheet1",1,"Task Instructions","Screen 5","8nvnao",8,"continue","",3386.39999999999,3380.89999999999,3386.39999999999,3386.39999999999,3380.89999999999,3386.39999999999,1,3386.39999999999,0,0,NA,"Click To Continue","Continue Button",2,"object-44","Task Instructions",NA,"SUPPRF16119"
"10",1708106431657,"16/02/2024 18:00:31",1708110031657,1,"16/02/2024 20:00:31",166635,2,"task-v7r7",NA,35235371,10409770,NA,"complete",NA,"65cf9ed3adac672e940732b5","computer","Desktop or Laptop","Linux x86_64","Chrome 121.0.0.0","1360x768","1366x620",NA,NA,0,"Task Introduction and Instructions (re-introduce video and audio) (Clone)",3,"CDBEAFJGIH","Passed AC2","","Spreadsheet1",NA,"","","",NA,"5","END",NA,NA,NA,NA,NA,NA,0,NA,NA,NA,NA,"","",NA,"","",NA,"SUPPRF16119"
"1",1708106695383,"16/02/2024 18:04:55",1708106695383,0,"16/02/2024 18:04:55",166635,2,"task-v7r7",NA,35235555,10409801,NA,"complete",NA,"65cf9e5075ba348a6a36999c","computer","Desktop or Laptop","Windows 10","Chrome 121.0.0.0","1536x864","1536x747",NA,NA,0,"Task Introduction and Instructions (re-introduce video and audio) (Clone)",3,"DECFBGAHJI","Passed AC2","","Spreadsheet1",NA,"","","",NA,"5","BEGIN",NA,NA,NA,NA,NA,NA,0,NA,NA,NA,NA,"","",NA,"","",NA,"SUPPRF92604"
"2",1708106700592,"16/02/2024 18:05:00",1708106700592,0,"16/02/2024 18:05:00",166635,2,"task-v7r7",NA,35235555,10409801,NA,"complete",NA,"65cf9e5075ba348a6a36999c","computer","Desktop or Laptop","Windows 10","Chrome 121.0.0.0","1536x864","1536x747",NA,NA,0,"Task Introduction and Instructions (re-introduce video and audio) (Clone)",3,"DECFBGAHJI","Passed AC2","","Spreadsheet1",1,"Task Instructions","Screen 1","anr7sn",1,"continue","",4948.10000000014,4944.3,4948.10000000014,4948.10000000014,4944.3,4948.10000000014,1,4948.10000000014,0,0,NA,"Click To Continue","Continue Button",3,"object-60","Task Instructions",NA,"SUPPRF92604"
"3",1708106713807,"16/02/2024 18:05:13",1708106713807,0,"16/02/2024 18:05:13",166635,2,"task-v7r7",NA,35235555,10409801,NA,"complete",NA,"65cf9e5075ba348a6a36999c","computer","Desktop or Laptop","Windows 10","Chrome 121.0.0.0","1536x864","1536x747",NA,NA,0,"Task Introduction and Instructions (re-introduce video and audio) (Clone)",3,"DECFBGAHJI","Passed AC2","","Spreadsheet1",1,"Task Instructions","Screen 2","ce2tc8",2,"continue","",13218.4,13215.8,13218.4,13218.4,13215.8,13218.4,1,13218.4,0,0,NA,"Click To Continue","Continue Button",3,"object-59","Task Instructions",NA,"SUPPRF92604"
"4",1708106718319,"16/02/2024 18:05:18",1708106718319,0,"16/02/2024 18:05:18",166635,2,"task-v7r7",NA,35235555,10409801,NA,"complete",NA,"65cf9e5075ba348a6a36999c","computer","Desktop or Laptop","Windows 10","Chrome 121.0.0.0","1536x864","1536x747",NA,NA,0,"Task Introduction and Instructions (re-introduce video and audio) (Clone)",3,"DECFBGAHJI","Passed AC2","","Spreadsheet1",1,"Task Instructions","Screen 3","1qtc8v",3,"continue","",4513.8,4506.8,4513.8,4513.8,4506.8,4513.8,1,4513.8,0,0,NA,"Click To Continue","Continue Button",2,"object-2983","Task Instructions",NA,"SUPPRF92604"
"5",1708106724871,"16/02/2024 18:05:24",1708106724871,0,"16/02/2024 18:05:24",166635,2,"task-v7r7",NA,35235555,10409801,NA,"complete",NA,"65cf9e5075ba348a6a36999c","computer","Desktop or Laptop","Windows 10","Chrome 121.0.0.0","1536x864","1536x747",NA,NA,0,"Task Introduction and Instructions (re-introduce video and audio) (Clone)",3,"DECFBGAHJI","Passed AC2","","Spreadsheet1",1,"Task Instructions","Screen 12","1a4vu2",4,"continue","",6559.8,6555.9,6559.8,6559.8,6555.9,6559.8,1,6559.8,0,0,NA,"Click To Continue","Continue Button",2,"object-2466","Task Instructions",NA,"SUPPRF92604"
"6",1708106729850,"16/02/2024 18:05:29",1708106729850,0,"16/02/2024 18:05:29",166635,2,"task-v7r7",NA,35235555,10409801,NA,"complete",NA,"65cf9e5075ba348a6a36999c","computer","Desktop or Laptop","Windows 10","Chrome 121.0.0.0","1536x864","1536x747",NA,NA,0,"Task Introduction and Instructions (re-introduce video and audio) (Clone)",3,"DECFBGAHJI","Passed AC2","","Spreadsheet1",1,"Task Instructions","Screen 13","q9vwda",5,"continue","",4982.80000000014,4979.3,4982.80000000014,4982.80000000014,4979.3,4982.80000000014,1,4982.80000000014,0,0,NA,"Click To Continue","Continue Button",2,"object-2989","Task Instructions",NA,"SUPPRF92604"
"7",1708106733162,"16/02/2024 18:05:33",1708106733162,0,"16/02/2024 18:05:33",166635,2,"task-v7r7",NA,35235555,10409801,NA,"complete",NA,"65cf9e5075ba348a6a36999c","computer","Desktop or Laptop","Windows 10","Chrome 121.0.0.0","1536x864","1536x747",NA,NA,0,"Task Introduction and Instructions (re-introduce video and audio) (Clone)",3,"DECFBGAHJI","Passed AC2","","Spreadsheet1",1,"Task Instructions","Screen 11","oyulb7",6,"continue","",3316.30000000018,3312.7,3316.30000000018,3316.30000000018,3312.7,3316.30000000018,1,3316.30000000018,0,0,NA,"Click To Continue","Continue Button",2,"object-52","Task Instructions",NA,"SUPPRF92604"
"8",1708106735897,"16/02/2024 18:05:35",1708106735897,0,"16/02/2024 18:05:35",166635,2,"task-v7r7",NA,35235555,10409801,NA,"complete",NA,"65cf9e5075ba348a6a36999c","computer","Desktop or Laptop","Windows 10","Chrome 121.0.0.0","1536x864","1536x747",NA,NA,0,"Task Introduction and Instructions (re-introduce video and audio) (Clone)",3,"DECFBGAHJI","Passed AC2","","Spreadsheet1",1,"Task Instructions","Screen 4","spepx9",7,"continue","",2737.80000000014,2735.8,2737.80000000014,2737.80000000014,2735.8,2737.80000000014,1,2737.80000000014,0,0,NA,"Click To Continue","Continue Button",2,"object-9","Task Instructions",NA,"SUPPRF92604"
"9",1708106738580,"16/02/2024 18:05:38",1708106738580,0,"16/02/2024 18:05:38",166635,2,"task-v7r7",NA,35235555,10409801,NA,"complete",NA,"65cf9e5075ba348a6a36999c","computer","Desktop or Laptop","Windows 10","Chrome 121.0.0.0","1536x864","1536x747",NA,NA,0,"Task Introduction and Instructions (re-introduce video and audio) (Clone)",3,"DECFBGAHJI","Passed AC2","","Spreadsheet1",1,"Task Instructions","Screen 5","8nvnao",8,"continue","",2684.90000000005,2680.7,2684.90000000005,2684.90000000005,2680.7,2684.90000000005,1,2684.90000000005,0,0,NA,"Click To Continue","Continue Button",2,"object-44","Task Instructions",NA,"SUPPRF92604"
"10",1708106738581,"16/02/2024 18:05:38",1708106738581,0,"16/02/2024 18:05:38",166635,2,"task-v7r7",NA,35235555,10409801,NA,"complete",NA,"65cf9e5075ba348a6a36999c","computer","Desktop or Laptop","Windows 10","Chrome 121.0.0.0","1536x864","1536x747",NA,NA,0,"Task Introduction and Instructions (re-introduce video and audio) (Clone)",3,"DECFBGAHJI","Passed AC2","","Spreadsheet1",NA,"","","",NA,"5","END",NA,NA,NA,NA,NA,NA,0,NA,NA,NA,NA,"","",NA,"","",NA,"SUPPRF92604"
"1",1708109567593,"16/02/2024 18:52:47",1708109567593,0,"16/02/2024 18:52:47",166635,2,"task-v7r7",NA,35236721,10410189,NA,"complete",NA,"65cfaa77aa458aef6c66cf21","computer","Desktop or Laptop","Windows 10","Chrome 121.0.0.0","1536x864","1536x695",NA,NA,0,"Task Introduction and Instructions (re-introduce video and audio) (Clone)",3,"FGEHDICJBA","Passed AC2","","Spreadsheet1",NA,"","","",NA,"5","BEGIN",NA,NA,NA,NA,NA,NA,0,NA,NA,NA,NA,"","",NA,"","",NA,"SUPPRF90660"
"2",1708109571181,"16/02/2024 18:52:51",1708109571181,0,"16/02/2024 18:52:51",166635,2,"task-v7r7",NA,35236721,10410189,NA,"complete",NA,"65cfaa77aa458aef6c66cf21","computer","Desktop or Laptop","Windows 10","Chrome 121.0.0.0","1536x864","1536x695",NA,NA,0,"Task Introduction and Instructions (re-introduce video and audio) (Clone)",3,"FGEHDICJBA","Passed AC2","","Spreadsheet1",1,"Task Instructions","Screen 1","anr7sn",1,"continue","",3527.89999999404,3516.3,3527.89999999404,3527.89999999404,3516.3,3527.89999999404,1,3527.89999999404,0,0,NA,"Click To Continue","Continue Button",3,"object-60","Task Instructions",NA,"SUPPRF90660"
"3",1708109581412,"16/02/2024 18:53:01",1708109581412,0,"16/02/2024 18:53:01",166635,2,"task-v7r7",NA,35236721,10410189,NA,"complete",NA,"65cfaa77aa458aef6c66cf21","computer","Desktop or Laptop","Windows 10","Chrome 121.0.0.0","1536x864","1536x695",NA,NA,0,"Task Introduction and Instructions (re-introduce video and audio) (Clone)",3,"FGEHDICJBA","Passed AC2","","Spreadsheet1",1,"Task Instructions","Screen 2","ce2tc8",2,"continue","",10243.099999994,10232.4,10243.099999994,10243.099999994,10232.4,10243.099999994,1,10243.099999994,0,0,NA,"Click To Continue","Continue Button",3,"object-59","Task Instructions",NA,"SUPPRF90660"
"4",1708109591880,"16/02/2024 18:53:11",1708109591880,0,"16/02/2024 18:53:11",166635,2,"task-v7r7",NA,35236721,10410189,NA,"complete",NA,"65cfaa77aa458aef6c66cf21","computer","Desktop or Laptop","Windows 10","Chrome 121.0.0.0","1536x864","1536x695",NA,NA,0,"Task Introduction and Instructions (re-introduce video and audio) (Clone)",3,"FGEHDICJBA","Passed AC2","","Spreadsheet1",1,"Task Instructions","Screen 3","1qtc8v",3,"continue","",10478.699999994,10464.9,10478.699999994,10478.699999994,10464.9,10478.699999994,1,10478.699999994,0,0,NA,"Click To Continue","Continue Button",2,"object-2983","Task Instructions",NA,"SUPPRF90660"
"5",1708109627930,"16/02/2024 18:53:47",1708109627930,0,"16/02/2024 18:53:47",166635,2,"task-v7r7",NA,35236721,10410189,NA,"complete",NA,"65cfaa77aa458aef6c66cf21","computer","Desktop or Laptop","Windows 10","Chrome 121.0.0.0","1536x864","1536x695",NA,NA,0,"Task Introduction and Instructions (re-introduce video and audio) (Clone)",3,"FGEHDICJBA","Passed AC2","","Spreadsheet1",1,"Task Instructions","Screen 12","1a4vu2",4,"continue","",36064.5000000119,36062.1,36064.5000000119,36064.5000000119,36062.1,36064.5000000119,1,36064.5000000119,0,0,NA,"Click To Continue","Continue Button",2,"object-2466","Task Instructions",NA,"SUPPRF90660"
"6",1708109633242,"16/02/2024 18:53:53",1708109633242,0,"16/02/2024 18:53:53",166635,2,"task-v7r7",NA,35236721,10410189,NA,"complete",NA,"65cfaa77aa458aef6c66cf21","computer","Desktop or Laptop","Windows 10","Chrome 121.0.0.0","1536x864","1536x695",NA,NA,0,"Task Introduction and Instructions (re-introduce video and audio) (Clone)",3,"FGEHDICJBA","Passed AC2","","Spreadsheet1",1,"Task Instructions","Screen 13","q9vwda",5,"continue","",5314.19999999404,5299.2,5314.19999999404,5314.19999999404,5299.2,5314.19999999404,1,5314.19999999404,0,0,NA,"Click To Continue","Continue Button",2,"object-2989","Task Instructions",NA,"SUPPRF90660"
"7",1708109636572,"16/02/2024 18:53:56",1708109636572,0,"16/02/2024 18:53:56",166635,2,"task-v7r7",NA,35236721,10410189,NA,"complete",NA,"65cfaa77aa458aef6c66cf21","computer","Desktop or Laptop","Windows 10","Chrome 121.0.0.0","1536x864","1536x695",NA,NA,0,"Task Introduction and Instructions (re-introduce video and audio) (Clone)",3,"FGEHDICJBA","Passed AC2","","Spreadsheet1",1,"Task Instructions","Screen 11","oyulb7",6,"continue","",3344.70000001192,3333,3344.70000001192,3344.70000001192,3333,3344.70000001192,1,3344.70000001192,0,0,NA,"Click To Continue","Continue Button",2,"object-52","Task Instructions",NA,"SUPPRF90660"
"8",1708109639455,"16/02/2024 18:53:59",1708109639455,0,"16/02/2024 18:53:59",166635,2,"task-v7r7",NA,35236721,10410189,NA,"complete",NA,"65cfaa77aa458aef6c66cf21","computer","Desktop or Laptop","Windows 10","Chrome 121.0.0.0","1536x864","1536x695",NA,NA,0,"Task Introduction and Instructions (re-introduce video and audio) (Clone)",3,"FGEHDICJBA","Passed AC2","","Spreadsheet1",1,"Task Instructions","Screen 4","spepx9",7,"continue","",2894.39999999999,2883.09999999999,2894.39999999999,2894.39999999999,2883.09999999999,2894.39999999999,1,2894.39999999999,0,0,NA,"Click To Continue","Continue Button",2,"object-9","Task Instructions",NA,"SUPPRF90660"
"9",1708109642270,"16/02/2024 18:54:02",1708109642270,0,"16/02/2024 18:54:02",166635,2,"task-v7r7",NA,35236721,10410189,NA,"complete",NA,"65cfaa77aa458aef6c66cf21","computer","Desktop or Laptop","Windows 10","Chrome 121.0.0.0","1536x864","1536x695",NA,NA,0,"Task Introduction and Instructions (re-introduce video and audio) (Clone)",3,"FGEHDICJBA","Passed AC2","","Spreadsheet1",1,"Task Instructions","Screen 5","8nvnao",8,"continue","",2826.49999998808,2816.7,2826.49999998808,2826.49999998808,2816.7,2826.49999998808,1,2826.49999998808,0,0,NA,"Click To Continue","Continue Button",2,"object-44","Task Instructions",NA,"SUPPRF90660"
"10",1708109642273,"16/02/2024 18:54:02",1708109642273,0,"16/02/2024 18:54:02",166635,2,"task-v7r7",NA,35236721,10410189,NA,"complete",NA,"65cfaa77aa458aef6c66cf21","computer","Desktop or Laptop","Windows 10","Chrome 121.0.0.0","1536x864","1536x695",NA,NA,0,"Task Introduction and Instructions (re-introduce video and audio) (Clone)",3,"FGEHDICJBA","Passed AC2","","Spreadsheet1",NA,"","","",NA,"5","END",NA,NA,NA,NA,NA,NA,0,NA,NA,NA,NA,"","",NA,"","",NA,"SUPPRF90660"
"1",1708109855052,"16/02/2024 18:57:35",1708109855052,0,"16/02/2024 18:57:35",166635,2,"task-v7r7",NA,35236837,10410271,NA,"complete",NA,"65cfadaf101939b09af728d0","computer","Desktop or Laptop","Windows 10","Chrome 121.0.0.0","1536x864","1536x738",NA,NA,0,"Task Introduction and Instructions (re-introduce video and audio) (Clone)",3,"HIGJFAEBDC","Passed AC2","","Spreadsheet1",NA,"","","",NA,"5","BEGIN",NA,NA,NA,NA,NA,NA,0,NA,NA,NA,NA,"","",NA,"","",NA,"SUPPRF21106"
"2",1708109860213,"16/02/2024 18:57:40",1708109860213,0,"16/02/2024 18:57:40",166635,2,"task-v7r7",NA,35236837,10410271,NA,"complete",NA,"65cfadaf101939b09af728d0","computer","Desktop or Laptop","Windows 10","Chrome 121.0.0.0","1536x864","1536x738",NA,NA,0,"Task Introduction and Instructions (re-introduce video and audio) (Clone)",3,"HIGJFAEBDC","Passed AC2","","Spreadsheet1",1,"Task Instructions","Screen 1","anr7sn",1,"continue","",5056.2,5039.2,5056.2,5056.2,5039.2,5056.2,1,5056.2,0,0,NA,"Click To Continue","Continue Button",3,"object-60","Task Instructions",NA,"SUPPRF21106"
"3",1708109870889,"16/02/2024 18:57:50",1708109870889,0,"16/02/2024 18:57:50",166635,2,"task-v7r7",NA,35236837,10410271,NA,"complete",NA,"65cfadaf101939b09af728d0","computer","Desktop or Laptop","Windows 10","Chrome 121.0.0.0","1536x864","1536x738",NA,NA,0,"Task Introduction and Instructions (re-introduce video and audio) (Clone)",3,"HIGJFAEBDC","Passed AC2","","Spreadsheet1",1,"Task Instructions","Screen 2","ce2tc8",2,"continue","",10695.1,10678.3,10695.1,10695.1,10678.3,10695.1,1,10695.1,0,0,NA,"Click To Continue","Continue Button",3,"object-59","Task Instructions",NA,"SUPPRF21106"
"4",1708109878349,"16/02/2024 18:57:58",1708109878349,0,"16/02/2024 18:57:58",166635,2,"task-v7r7",NA,35236837,10410271,NA,"complete",NA,"65cfadaf101939b09af728d0","computer","Desktop or Laptop","Windows 10","Chrome 121.0.0.0","1536x864","1536x738",NA,NA,0,"Task Introduction and Instructions (re-introduce video and audio) (Clone)",3,"HIGJFAEBDC","Passed AC2","","Spreadsheet1",1,"Task Instructions","Screen 3","1qtc8v",3,"continue","",7476.49999999702,7474.8,7476.49999999702,7476.49999999702,7474.8,7476.49999999702,1,7476.49999999702,0,0,NA,"Click To Continue","Continue Button",2,"object-2983","Task Instructions",NA,"SUPPRF21106"
"5",1708109895628,"16/02/2024 18:58:15",1708109895628,0,"16/02/2024 18:58:15",166635,2,"task-v7r7",NA,35236837,10410271,NA,"complete",NA,"65cfadaf101939b09af728d0","computer","Desktop or Laptop","Windows 10","Chrome 121.0.0.0","1536x864","1536x738",NA,NA,0,"Task Introduction and Instructions (re-introduce video and audio) (Clone)",3,"HIGJFAEBDC","Passed AC2","","Spreadsheet1",1,"Task Instructions","Screen 12","1a4vu2",4,"continue","",17280.600000003,17269.1,17280.600000003,17280.600000003,17269.1,17280.600000003,1,17280.600000003,0,0,NA,"Click To Continue","Continue Button",2,"object-2466","Task Instructions",NA,"SUPPRF21106"
"6",1708109902220,"16/02/2024 18:58:22",1708109902220,0,"16/02/2024 18:58:22",166635,2,"task-v7r7",NA,35236837,10410271,NA,"complete",NA,"65cfadaf101939b09af728d0","computer","Desktop or Laptop","Windows 10","Chrome 121.0.0.0","1536x864","1536x738",NA,NA,0,"Task Introduction and Instructions (re-introduce video and audio) (Clone)",3,"HIGJFAEBDC","Passed AC2","","Spreadsheet1",1,"Task Instructions","Screen 13","q9vwda",5,"continue","",6604.00000000298,6590.60000000001,6604.00000000298,6604.00000000298,6590.60000000001,6604.00000000298,1,6604.00000000298,0,0,NA,"Click To Continue","Continue Button",2,"object-2989","Task Instructions",NA,"SUPPRF21106"
"7",1708109905648,"16/02/2024 18:58:25",1708109905648,0,"16/02/2024 18:58:25",166635,2,"task-v7r7",NA,35236837,10410271,NA,"complete",NA,"65cfadaf101939b09af728d0","computer","Desktop or Laptop","Windows 10","Chrome 121.0.0.0","1536x864","1536x738",NA,NA,0,"Task Introduction and Instructions (re-introduce video and audio) (Clone)",3,"HIGJFAEBDC","Passed AC2","","Spreadsheet1",1,"Task Instructions","Screen 11","oyulb7",6,"continue","",3441.60000000596,3436.89999999999,3441.60000000596,3441.60000000596,3436.89999999999,3441.60000000596,1,3441.60000000596,0,0,NA,"Click To Continue","Continue Button",2,"object-52","Task Instructions",NA,"SUPPRF21106"
"8",1708109908887,"16/02/2024 18:58:28",1708109908887,0,"16/02/2024 18:58:28",166635,2,"task-v7r7",NA,35236837,10410271,NA,"complete",NA,"65cfadaf101939b09af728d0","computer","Desktop or Laptop","Windows 10","Chrome 121.0.0.0","1536x864","1536x738",NA,NA,0,"Task Introduction and Instructions (re-introduce video and audio) (Clone)",3,"HIGJFAEBDC","Passed AC2","","Spreadsheet1",1,"Task Instructions","Screen 4","spepx9",7,"continue","",3243.50000000298,3237.2,3243.50000000298,3243.50000000298,3237.2,3243.50000000298,1,3243.50000000298,0,0,NA,"Click To Continue","Continue Button",2,"object-9","Task Instructions",NA,"SUPPRF21106"
"9",1708109912014,"16/02/2024 18:58:32",1708109912014,0,"16/02/2024 18:58:32",166635,2,"task-v7r7",NA,35236837,10410271,NA,"complete",NA,"65cfadaf101939b09af728d0","computer","Desktop or Laptop","Windows 10","Chrome 121.0.0.0","1536x864","1536x738",NA,NA,0,"Task Introduction and Instructions (re-introduce video and audio) (Clone)",3,"HIGJFAEBDC","Passed AC2","","Spreadsheet1",1,"Task Instructions","Screen 5","8nvnao",8,"continue","",3133.50000000596,3120,3133.50000000596,3133.50000000596,3120,3133.50000000596,1,3133.50000000596,0,0,NA,"Click To Continue","Continue Button",2,"object-44","Task Instructions",NA,"SUPPRF21106"
"10",1708109912019,"16/02/2024 18:58:32",1708109912019,0,"16/02/2024 18:58:32",166635,2,"task-v7r7",NA,35236837,10410271,NA,"complete",NA,"65cfadaf101939b09af728d0","computer","Desktop or Laptop","Windows 10","Chrome 121.0.0.0","1536x864","1536x738",NA,NA,0,"Task Introduction and Instructions (re-introduce video and audio) (Clone)",3,"HIGJFAEBDC","Passed AC2","","Spreadsheet1",NA,"","","",NA,"5","END",NA,NA,NA,NA,NA,NA,0,NA,NA,NA,NA,"","",NA,"","",NA,"SUPPRF21106"
"1",1708110773611,"16/02/2024 19:12:53",1708110773611,0,"16/02/2024 19:12:53",166635,2,"task-v7r7",NA,35237139,10410299,NA,"complete",NA,"65cfaf013bcd2ef77a27bccc","computer","Desktop or Laptop","Mac OS 10.15.7","Chrome 121.0.0.0","1512x982","1090x713",NA,NA,0,"Task Introduction and Instructions (re-introduce video and audio) (Clone)",3,"IJHAGBFCED","Passed AC2","","Spreadsheet1",NA,"","","",NA,"5","BEGIN",NA,NA,NA,NA,NA,NA,0,NA,NA,NA,NA,"","",NA,"","",NA,"SUPPRF80091"
"2",1708110813872,"16/02/2024 19:13:33",1708110813872,0,"16/02/2024 19:13:33",166635,2,"task-v7r7",NA,35237139,10410299,NA,"complete",NA,"65cfaf013bcd2ef77a27bccc","computer","Desktop or Laptop","Mac OS 10.15.7","Chrome 121.0.0.0","1512x982","1090x713",NA,NA,0,"Task Introduction and Instructions (re-introduce video and audio) (Clone)",3,"IJHAGBFCED","Passed AC2","","Spreadsheet1",1,"Task Instructions","Screen 1","anr7sn",1,"continue","",40198.8,40191.3,40198.8,40198.8,40191.3,40198.8,1,40198.8,0,0,NA,"Click To Continue","Continue Button",3,"object-60","Task Instructions",NA,"SUPPRF80091"
"3",1708110833710,"16/02/2024 19:13:53",1708110833710,0,"16/02/2024 19:13:53",166635,2,"task-v7r7",NA,35237139,10410299,NA,"complete",NA,"65cfaf013bcd2ef77a27bccc","computer","Desktop or Laptop","Mac OS 10.15.7","Chrome 121.0.0.0","1512x982","1090x713",NA,NA,0,"Task Introduction and Instructions (re-introduce video and audio) (Clone)",3,"IJHAGBFCED","Passed AC2","","Spreadsheet1",1,"Task Instructions","Screen 2","ce2tc8",2,"continue","",19845.900000006,19837.7,19845.900000006,19845.900000006,19837.7,19845.900000006,1,19845.900000006,0,0,NA,"Click To Continue","Continue Button",3,"object-59","Task Instructions",NA,"SUPPRF80091"
"4",1708110848953,"16/02/2024 19:14:08",1708110848953,0,"16/02/2024 19:14:08",166635,2,"task-v7r7",NA,35237139,10410299,NA,"complete",NA,"65cfaf013bcd2ef77a27bccc","computer","Desktop or Laptop","Mac OS 10.15.7","Chrome 121.0.0.0","1512x982","1090x713",NA,NA,0,"Task Introduction and Instructions (re-introduce video and audio) (Clone)",3,"IJHAGBFCED","Passed AC2","","Spreadsheet1",1,"Task Instructions","Screen 3","1qtc8v",3,"continue","",15251.500000003,15249.6,15251.500000003,15251.500000003,15249.6,15251.500000003,1,15251.500000003,0,0,NA,"Click To Continue","Continue Button",2,"object-2983","Task Instructions",NA,"SUPPRF80091"
"5",1708110858134,"16/02/2024 19:14:18",1708110858134,0,"16/02/2024 19:14:18",166635,2,"task-v7r7",NA,35237139,10410299,NA,"complete",NA,"65cfaf013bcd2ef77a27bccc","computer","Desktop or Laptop","Mac OS 10.15.7","Chrome 121.0.0.0","1512x982","1090x713",NA,NA,0,"Task Introduction and Instructions (re-introduce video and audio) (Clone)",3,"IJHAGBFCED","Passed AC2","","Spreadsheet1",1,"Task Instructions","Screen 12","1a4vu2",4,"continue","",9182.80000000894,9179.5,9182.80000000894,9182.80000000894,9179.5,9182.80000000894,1,9182.80000000894,0,0,NA,"Click To Continue","Continue Button",2,"object-2466","Task Instructions",NA,"SUPPRF80091"
"6",1708110864931,"16/02/2024 19:14:24",1708110864931,0,"16/02/2024 19:14:24",166635,2,"task-v7r7",NA,35237139,10410299,NA,"complete",NA,"65cfaf013bcd2ef77a27bccc","computer","Desktop or Laptop","Mac OS 10.15.7","Chrome 121.0.0.0","1512x982","1090x713",NA,NA,0,"Task Introduction and Instructions (re-introduce video and audio) (Clone)",3,"IJHAGBFCED","Passed AC2","","Spreadsheet1",1,"Task Instructions","Screen 13","q9vwda",5,"continue","",6798.2,6790.7,6798.2,6798.2,6790.7,6798.2,1,6798.2,0,0,NA,"Click To Continue","Continue Button",2,"object-2989","Task Instructions",NA,"SUPPRF80091"
"7",1708110873635,"16/02/2024 19:14:33",1708110873635,0,"16/02/2024 19:14:33",166635,2,"task-v7r7",NA,35237139,10410299,NA,"complete",NA,"65cfaf013bcd2ef77a27bccc","computer","Desktop or Laptop","Mac OS 10.15.7","Chrome 121.0.0.0","1512x982","1090x713",NA,NA,0,"Task Introduction and Instructions (re-introduce video and audio) (Clone)",3,"IJHAGBFCED","Passed AC2","","Spreadsheet1",1,"Task Instructions","Screen 11","oyulb7",6,"continue","",8713.50000000001,8705.10000000001,8713.50000000001,8713.50000000001,8705.10000000001,8713.50000000001,1,8713.50000000001,0,0,NA,"Click To Continue","Continue Button",2,"object-52","Task Instructions",NA,"SUPPRF80091"
"8",1708110892509,"16/02/2024 19:14:52",1708110892509,0,"16/02/2024 19:14:52",166635,2,"task-v7r7",NA,35237139,10410299,NA,"complete",NA,"65cfaf013bcd2ef77a27bccc","computer","Desktop or Laptop","Mac OS 10.15.7","Chrome 121.0.0.0","1512x982","1090x713",NA,NA,0,"Task Introduction and Instructions (re-introduce video and audio) (Clone)",3,"IJHAGBFCED","Passed AC2","","Spreadsheet1",1,"Task Instructions","Screen 4","spepx9",7,"continue","",18882.800000006,18878.2,18882.800000006,18882.800000006,18878.2,18882.800000006,1,18882.800000006,0,0,NA,"Click To Continue","Continue Button",2,"object-9","Task Instructions",NA,"SUPPRF80091"
"9",1708110896635,"16/02/2024 19:14:56",1708110896635,0,"16/02/2024 19:14:56",166635,2,"task-v7r7",NA,35237139,10410299,NA,"complete",NA,"65cfaf013bcd2ef77a27bccc","computer","Desktop or Laptop","Mac OS 10.15.7","Chrome 121.0.0.0","1512x982","1090x713",NA,NA,0,"Task Introduction and Instructions (re-introduce video and audio) (Clone)",3,"IJHAGBFCED","Passed AC2","","Spreadsheet1",1,"Task Instructions","Screen 5","8nvnao",8,"continue","",4130.10000000596,4126,4130.10000000596,4130.10000000596,4126,4130.10000000596,1,4130.10000000596,0,0,NA,"Click To Continue","Continue Button",2,"object-44","Task Instructions",NA,"SUPPRF80091"
"10",1708110896641,"16/02/2024 19:14:56",1708110896641,0,"16/02/2024 19:14:56",166635,2,"task-v7r7",NA,35237139,10410299,NA,"complete",NA,"65cfaf013bcd2ef77a27bccc","computer","Desktop or Laptop","Mac OS 10.15.7","Chrome 121.0.0.0","1512x982","1090x713",NA,NA,0,"Task Introduction and Instructions (re-introduce video and audio) (Clone)",3,"IJHAGBFCED","Passed AC2","","Spreadsheet1",NA,"","","",NA,"5","END",NA,NA,NA,NA,NA,NA,0,NA,NA,NA,NA,"","",NA,"","",NA,"SUPPRF80091"
"1",1708111294995,"16/02/2024 19:21:34",1708089694995,-6,"16/02/2024 07:21:34",166635,2,"task-v7r7",NA,35237295,10410377,NA,"complete",NA,"65cfb1f4bb345b2197aee9aa","computer","Desktop or Laptop","Mac OS 10.15.7","Chrome 114.0.0.0","1440x900","1440x789",NA,NA,0,"Task Introduction and Instructions (re-introduce video and audio) (Clone)",3,"ABJCIDHEGF","Passed AC2","","Spreadsheet1",NA,"","","",NA,"5","BEGIN",NA,NA,NA,NA,NA,NA,0,NA,NA,NA,NA,"","",NA,"","",NA,"SUPPRF07437"
"2",1708111299576,"16/02/2024 19:21:39",1708089699576,-6,"16/02/2024 07:21:39",166635,2,"task-v7r7",NA,35237295,10410377,NA,"complete",NA,"65cfb1f4bb345b2197aee9aa","computer","Desktop or Laptop","Mac OS 10.15.7","Chrome 114.0.0.0","1440x900","1440x789",NA,NA,0,"Task Introduction and Instructions (re-introduce video and audio) (Clone)",3,"ABJCIDHEGF","Passed AC2","","Spreadsheet1",1,"Task Instructions","Screen 1","anr7sn",1,"continue","",3891.93299980927,3884.032,3891.93299980927,3891.93299980927,3884.032,3891.93299980927,1,3891.93299980927,0,0,NA,"Click To Continue","Continue Button",3,"object-60","Task Instructions",NA,"SUPPRF07437"
"3",1708111308577,"16/02/2024 19:21:48",1708089708577,-6,"16/02/2024 07:21:48",166635,2,"task-v7r7",NA,35237295,10410377,NA,"complete",NA,"65cfb1f4bb345b2197aee9aa","computer","Desktop or Laptop","Mac OS 10.15.7","Chrome 114.0.0.0","1440x900","1440x789",NA,NA,0,"Task Introduction and Instructions (re-introduce video and audio) (Clone)",3,"ABJCIDHEGF","Passed AC2","","Spreadsheet1",1,"Task Instructions","Screen 2","ce2tc8",2,"continue","",9010.10100009537,8999.64,9010.10100009537,9010.10100009537,8999.64,9010.10100009537,1,9010.10100009537,0,0,NA,"Click To Continue","Continue Button",3,"object-59","Task Instructions",NA,"SUPPRF07437"
"4",1708111320977,"16/02/2024 19:22:00",1708089720977,-6,"16/02/2024 07:22:00",166635,2,"task-v7r7",NA,35237295,10410377,NA,"complete",NA,"65cfb1f4bb345b2197aee9aa","computer","Desktop or Laptop","Mac OS 10.15.7","Chrome 114.0.0.0","1440x900","1440x789",NA,NA,0,"Task Introduction and Instructions (re-introduce video and audio) (Clone)",3,"ABJCIDHEGF","Passed AC2","","Spreadsheet1",1,"Task Instructions","Screen 3","1qtc8v",3,"continue","",12411.061,12400.334,12411.061,12411.061,12400.334,12411.061,1,12411.061,0,0,NA,"Click To Continue","Continue Button",2,"object-2983","Task Instructions",NA,"SUPPRF07437"
"5",1708111334927,"16/02/2024 19:22:14",1708089734927,-6,"16/02/2024 07:22:14",166635,2,"task-v7r7",NA,35237295,10410377,NA,"complete",NA,"65cfb1f4bb345b2197aee9aa","computer","Desktop or Laptop","Mac OS 10.15.7","Chrome 114.0.0.0","1440x900","1440x789",NA,NA,0,"Task Introduction and Instructions (re-introduce video and audio) (Clone)",3,"ABJCIDHEGF","Passed AC2","","Spreadsheet1",1,"Task Instructions","Screen 12","1a4vu2",4,"continue","",13960.4269998093,13951.491,13960.4269998093,13960.4269998093,13951.491,13960.4269998093,1,13960.4269998093,0,0,NA,"Click To Continue","Continue Button",2,"object-2466","Task Instructions",NA,"SUPPRF07437"
"6",1708111340425,"16/02/2024 19:22:20",1708089740425,-6,"16/02/2024 07:22:20",166635,2,"task-v7r7",NA,35237295,10410377,NA,"complete",NA,"65cfb1f4bb345b2197aee9aa","computer","Desktop or Laptop","Mac OS 10.15.7","Chrome 114.0.0.0","1440x900","1440x789",NA,NA,0,"Task Introduction and Instructions (re-introduce video and audio) (Clone)",3,"ABJCIDHEGF","Passed AC2","","Spreadsheet1",1,"Task Instructions","Screen 13","q9vwda",5,"continue","",5507.53599971389,5499.78,5507.53599971389,5507.53599971389,5499.78,5507.53599971389,1,5507.53599971389,0,0,NA,"Click To Continue","Continue Button",2,"object-2989","Task Instructions",NA,"SUPPRF07437"
"7",1708111343175,"16/02/2024 19:22:23",1708089743175,-6,"16/02/2024 07:22:23",166635,2,"task-v7r7",NA,35237295,10410377,NA,"complete",NA,"65cfb1f4bb345b2197aee9aa","computer","Desktop or Laptop","Mac OS 10.15.7","Chrome 114.0.0.0","1440x900","1440x789",NA,NA,0,"Task Introduction and Instructions (re-introduce video and audio) (Clone)",3,"ABJCIDHEGF","Passed AC2","","Spreadsheet1",1,"Task Instructions","Screen 11","oyulb7",6,"continue","",2757.85600009537,2749.89,2757.85600009537,2757.85600009537,2749.89,2757.85600009537,1,2757.85600009537,0,0,NA,"Click To Continue","Continue Button",2,"object-52","Task Instructions",NA,"SUPPRF07437"
"8",1708111346026,"16/02/2024 19:22:26",1708089746026,-6,"16/02/2024 07:22:26",166635,2,"task-v7r7",NA,35237295,10410377,NA,"complete",NA,"65cfb1f4bb345b2197aee9aa","computer","Desktop or Laptop","Mac OS 10.15.7","Chrome 114.0.0.0","1440x900","1440x789",NA,NA,0,"Task Introduction and Instructions (re-introduce video and audio) (Clone)",3,"ABJCIDHEGF","Passed AC2","","Spreadsheet1",1,"Task Instructions","Screen 4","spepx9",7,"continue","",2858.8659997139,2850.692,2858.8659997139,2858.8659997139,2850.692,2858.8659997139,1,2858.8659997139,0,0,NA,"Click To Continue","Continue Button",2,"object-9","Task Instructions",NA,"SUPPRF07437"
"9",1708111349092,"16/02/2024 19:22:29",1708089749092,-6,"16/02/2024 07:22:29",166635,2,"task-v7r7",NA,35237295,10410377,NA,"complete",NA,"65cfb1f4bb345b2197aee9aa","computer","Desktop or Laptop","Mac OS 10.15.7","Chrome 114.0.0.0","1440x900","1440x789",NA,NA,0,"Task Introduction and Instructions (re-introduce video and audio) (Clone)",3,"ABJCIDHEGF","Passed AC2","","Spreadsheet1",1,"Task Instructions","Screen 5","8nvnao",8,"continue","",3074.874,3066.544,3074.874,3074.874,3066.544,3074.874,1,3074.874,0,0,NA,"Click To Continue","Continue Button",2,"object-44","Task Instructions",NA,"SUPPRF07437"
"10",1708111349095,"16/02/2024 19:22:29",1708089749095,-6,"16/02/2024 07:22:29",166635,2,"task-v7r7",NA,35237295,10410377,NA,"complete",NA,"65cfb1f4bb345b2197aee9aa","computer","Desktop or Laptop","Mac OS 10.15.7","Chrome 114.0.0.0","1440x900","1440x789",NA,NA,0,"Task Introduction and Instructions (re-introduce video and audio) (Clone)",3,"ABJCIDHEGF","Passed AC2","","Spreadsheet1",NA,"","","",NA,"5","END",NA,NA,NA,NA,NA,NA,0,NA,NA,NA,NA,"","",NA,"","",NA,"SUPPRF07437"
"1",1708111642903,"16/02/2024 19:27:22",1708111642903,0,"16/02/2024 19:27:22",166635,2,"task-v7r7",NA,35237427,10410439,NA,"complete",NA,"65cfb4595ff43f82e95cb6b5","computer","Desktop or Laptop","Windows 10","Chrome 121.0.0.0","1280x720","1280x632",NA,NA,0,"Task Introduction and Instructions (re-introduce video and audio) (Clone)",3,"CDBEAFJGIH","Passed AC2","","Spreadsheet1",NA,"","","",NA,"5","BEGIN",NA,NA,NA,NA,NA,NA,0,NA,NA,NA,NA,"","",NA,"","",NA,"SUPPRF78069"
"2",1708111646131,"16/02/2024 19:27:26",1708111646131,0,"16/02/2024 19:27:26",166635,2,"task-v7r7",NA,35237427,10410439,NA,"complete",NA,"65cfb4595ff43f82e95cb6b5","computer","Desktop or Laptop","Windows 10","Chrome 121.0.0.0","1280x720","1280x632",NA,NA,0,"Task Introduction and Instructions (re-introduce video and audio) (Clone)",3,"CDBEAFJGIH","Passed AC2","","Spreadsheet1",1,"Task Instructions","Screen 1","anr7sn",1,"continue","",3132.3,3115.6,3132.3,3132.3,3115.6,3132.3,1,3132.3,0,0,NA,"Click To Continue","Continue Button",3,"object-60","Task Instructions",NA,"SUPPRF78069"
"3",1708111655039,"16/02/2024 19:27:35",1708111655039,0,"16/02/2024 19:27:35",166635,2,"task-v7r7",NA,35237427,10410439,NA,"complete",NA,"65cfb4595ff43f82e95cb6b5","computer","Desktop or Laptop","Windows 10","Chrome 121.0.0.0","1280x720","1280x632",NA,NA,0,"Task Introduction and Instructions (re-introduce video and audio) (Clone)",3,"CDBEAFJGIH","Passed AC2","","Spreadsheet1",1,"Task Instructions","Screen 2","ce2tc8",2,"continue","",8927.69999999944,8914.2,8927.69999999944,8927.69999999944,8914.2,8927.69999999944,1,8927.69999999944,0,0,NA,"Click To Continue","Continue Button",3,"object-59","Task Instructions",NA,"SUPPRF78069"
"4",1708111662814,"16/02/2024 19:27:42",1708111662814,0,"16/02/2024 19:27:42",166635,2,"task-v7r7",NA,35237427,10410439,NA,"complete",NA,"65cfb4595ff43f82e95cb6b5","computer","Desktop or Laptop","Windows 10","Chrome 121.0.0.0","1280x720","1280x632",NA,NA,0,"Task Introduction and Instructions (re-introduce video and audio) (Clone)",3,"CDBEAFJGIH","Passed AC2","","Spreadsheet1",1,"Task Instructions","Screen 3","1qtc8v",3,"continue","",7788.39999999981,7781.3,7788.39999999981,7788.39999999981,7781.3,7788.39999999981,1,7788.39999999981,0,0,NA,"Click To Continue","Continue Button",2,"object-2983","Task Instructions",NA,"SUPPRF78069"
"5",1708111668863,"16/02/2024 19:27:48",1708111668863,0,"16/02/2024 19:27:48",166635,2,"task-v7r7",NA,35237427,10410439,NA,"complete",NA,"65cfb4595ff43f82e95cb6b5","computer","Desktop or Laptop","Windows 10","Chrome 121.0.0.0","1280x720","1280x632",NA,NA,0,"Task Introduction and Instructions (re-introduce video and audio) (Clone)",3,"CDBEAFJGIH","Passed AC2","","Spreadsheet1",1,"Task Instructions","Screen 12","1a4vu2",4,"continue","",6055.49999999925,6048.4,6055.49999999925,6055.49999999925,6048.4,6055.49999999925,1,6055.49999999925,0,0,NA,"Click To Continue","Continue Button",2,"object-2466","Task Instructions",NA,"SUPPRF78069"
"6",1708111673850,"16/02/2024 19:27:53",1708111673850,0,"16/02/2024 19:27:53",166635,2,"task-v7r7",NA,35237427,10410439,NA,"complete",NA,"65cfb4595ff43f82e95cb6b5","computer","Desktop or Laptop","Windows 10","Chrome 121.0.0.0","1280x720","1280x632",NA,NA,0,"Task Introduction and Instructions (re-introduce video and audio) (Clone)",3,"CDBEAFJGIH","Passed AC2","","Spreadsheet1",1,"Task Instructions","Screen 13","q9vwda",5,"continue","",4994.59999999926,4982,4994.59999999926,4994.59999999926,4982,4994.59999999926,1,4994.59999999926,0,0,NA,"Click To Continue","Continue Button",2,"object-2989","Task Instructions",NA,"SUPPRF78069"
"7",1708111676315,"16/02/2024 19:27:56",1708111676315,0,"16/02/2024 19:27:56",166635,2,"task-v7r7",NA,35237427,10410439,NA,"complete",NA,"65cfb4595ff43f82e95cb6b5","computer","Desktop or Laptop","Windows 10","Chrome 121.0.0.0","1280x720","1280x632",NA,NA,0,"Task Introduction and Instructions (re-introduce video and audio) (Clone)",3,"CDBEAFJGIH","Passed AC2","","Spreadsheet1",1,"Task Instructions","Screen 11","oyulb7",6,"continue","",2477.29999999944,2466,2477.29999999944,2477.29999999944,2466,2477.29999999944,1,2477.29999999944,0,0,NA,"Click To Continue","Continue Button",2,"object-52","Task Instructions",NA,"SUPPRF78069"
"8",1708111679430,"16/02/2024 19:27:59",1708111679430,0,"16/02/2024 19:27:59",166635,2,"task-v7r7",NA,35237427,10410439,NA,"complete",NA,"65cfb4595ff43f82e95cb6b5","computer","Desktop or Laptop","Windows 10","Chrome 121.0.0.0","1280x720","1280x632",NA,NA,0,"Task Introduction and Instructions (re-introduce video and audio) (Clone)",3,"CDBEAFJGIH","Passed AC2","","Spreadsheet1",1,"Task Instructions","Screen 4","spepx9",7,"continue","",3126.09999999926,3116.5,3126.09999999926,3126.09999999926,3116.5,3126.09999999926,1,3126.09999999926,0,0,NA,"Click To Continue","Continue Button",2,"object-9","Task Instructions",NA,"SUPPRF78069"
"9",1708111682123,"16/02/2024 19:28:02",1708111682123,0,"16/02/2024 19:28:02",166635,2,"task-v7r7",NA,35237427,10410439,NA,"complete",NA,"65cfb4595ff43f82e95cb6b5","computer","Desktop or Laptop","Windows 10","Chrome 121.0.0.0","1280x720","1280x632",NA,NA,0,"Task Introduction and Instructions (re-introduce video and audio) (Clone)",3,"CDBEAFJGIH","Passed AC2","","Spreadsheet1",1,"Task Instructions","Screen 5","8nvnao",8,"continue","",2703.19999999982,2699,2703.19999999982,2703.19999999982,2699,2703.19999999982,1,2703.19999999982,0,0,NA,"Click To Continue","Continue Button",2,"object-44","Task Instructions",NA,"SUPPRF78069"
"10",1708111682126,"16/02/2024 19:28:02",1708111682126,0,"16/02/2024 19:28:02",166635,2,"task-v7r7",NA,35237427,10410439,NA,"complete",NA,"65cfb4595ff43f82e95cb6b5","computer","Desktop or Laptop","Windows 10","Chrome 121.0.0.0","1280x720","1280x632",NA,NA,0,"Task Introduction and Instructions (re-introduce video and audio) (Clone)",3,"CDBEAFJGIH","Passed AC2","","Spreadsheet1",NA,"","","",NA,"5","END",NA,NA,NA,NA,NA,NA,0,NA,NA,NA,NA,"","",NA,"","",NA,"SUPPRF78069"
"1",1708112223820,"16/02/2024 19:37:03",1708115823820,1,"16/02/2024 21:37:03",166635,2,"task-v7r7",NA,35237644,10410440,NA,"complete",NA,"65cfb45ed03608ff7096d8f5","computer","Desktop or Laptop","Linux x86_64","Chrome 120.0.0.0","412x846","1113x1939",NA,NA,0,"Task Introduction and Instructions (re-introduce video and audio) (Clone)",3,"DECFBGAHJI","Passed AC2","","Spreadsheet1",NA,"","","",NA,"5","BEGIN",NA,NA,NA,NA,NA,NA,0,NA,NA,NA,NA,"","",NA,"","",NA,"SUPPRF04615"
"2",1708112277988,"16/02/2024 19:37:57",1708115877988,1,"16/02/2024 21:37:57",166635,2,"task-v7r7",NA,35237644,10410440,NA,"complete",NA,"65cfb45ed03608ff7096d8f5","computer","Desktop or Laptop","Linux x86_64","Chrome 120.0.0.0","412x846","1113x1939",NA,NA,0,"Task Introduction and Instructions (re-introduce video and audio) (Clone)",3,"DECFBGAHJI","Passed AC2","","Spreadsheet1",1,"Task Instructions","Screen 1","anr7sn",1,"continue","",53012.275,52995.625,53012.275,53012.275,52995.625,53012.275,1,53012.275,0,0,NA,"Click To Continue","Continue Button",3,"object-60","Task Instructions",NA,"SUPPRF04615"
"3",1708112290505,"16/02/2024 19:38:10",1708115890505,1,"16/02/2024 21:38:10",166635,2,"task-v7r7",NA,35237644,10410440,NA,"complete",NA,"65cfb45ed03608ff7096d8f5","computer","Desktop or Laptop","Linux x86_64","Chrome 120.0.0.0","412x846","1113x1939",NA,NA,0,"Task Introduction and Instructions (re-introduce video and audio) (Clone)",3,"DECFBGAHJI","Passed AC2","","Spreadsheet1",1,"Task Instructions","Screen 2","ce2tc8",2,"continue","",12564.0850000358,12552.862,12564.0850000358,12564.0850000358,12552.862,12564.0850000358,1,12564.0850000358,0,0,NA,"Click To Continue","Continue Button",3,"object-59","Task Instructions",NA,"SUPPRF04615"
"4",1708112302347,"16/02/2024 19:38:22",1708115902347,1,"16/02/2024 21:38:22",166635,2,"task-v7r7",NA,35237644,10410440,NA,"complete",NA,"65cfb45ed03608ff7096d8f5","computer","Desktop or Laptop","Linux x86_64","Chrome 120.0.0.0","412x846","1113x1939",NA,NA,0,"Task Introduction and Instructions (re-introduce video and audio) (Clone)",3,"DECFBGAHJI","Passed AC2","","Spreadsheet1",1,"Task Instructions","Screen 3","1qtc8v",3,"continue","",11854.0230000477,11839.325,11854.0230000477,11854.0230000477,11839.325,11854.0230000477,1,11854.0230000477,0,0,NA,"Click To Continue","Continue Button",2,"object-2983","Task Instructions",NA,"SUPPRF04615"
"5",1708112316820,"16/02/2024 19:38:36",1708115916820,1,"16/02/2024 21:38:36",166635,2,"task-v7r7",NA,35237644,10410440,NA,"complete",NA,"65cfb45ed03608ff7096d8f5","computer","Desktop or Laptop","Linux x86_64","Chrome 120.0.0.0","412x846","1113x1939",NA,NA,0,"Task Introduction and Instructions (re-introduce video and audio) (Clone)",3,"DECFBGAHJI","Passed AC2","","Spreadsheet1",1,"Task Instructions","Screen 12","1a4vu2",4,"continue","",14483.88,14467.218,14483.88,14483.88,14467.218,14483.88,1,14483.88,0,0,NA,"Click To Continue","Continue Button",2,"object-2466","Task Instructions",NA,"SUPPRF04615"
"6",1708112333569,"16/02/2024 19:38:53",1708115933569,1,"16/02/2024 21:38:53",166635,2,"task-v7r7",NA,35237644,10410440,NA,"complete",NA,"65cfb45ed03608ff7096d8f5","computer","Desktop or Laptop","Linux x86_64","Chrome 120.0.0.0","412x846","1113x1939",NA,NA,0,"Task Introduction and Instructions (re-introduce video and audio) (Clone)",3,"DECFBGAHJI","Passed AC2","","Spreadsheet1",1,"Task Instructions","Screen 13","q9vwda",5,"continue","",16768.5800000119,16760.27,16768.5800000119,16768.5800000119,16760.27,16768.5800000119,1,16768.5800000119,0,0,NA,"Click To Continue","Continue Button",2,"object-2989","Task Instructions",NA,"SUPPRF04615"
"7",1708112339687,"16/02/2024 19:38:59",1708115939687,1,"16/02/2024 21:38:59",166635,2,"task-v7r7",NA,35237644,10410440,NA,"complete",NA,"65cfb45ed03608ff7096d8f5","computer","Desktop or Laptop","Linux x86_64","Chrome 120.0.0.0","412x846","1113x1939",NA,NA,0,"Task Introduction and Instructions (re-introduce video and audio) (Clone)",3,"DECFBGAHJI","Passed AC2","","Spreadsheet1",1,"Task Instructions","Screen 11","oyulb7",6,"continue","",6126.61000002384,6115.12999999999,6126.61000002384,6126.61000002384,6115.12999999999,6126.61000002384,1,6126.61000002384,0,0,NA,"Click To Continue","Continue Button",2,"object-52","Task Instructions",NA,"SUPPRF04615"
"8",1708112350547,"16/02/2024 19:39:10",1708115950547,1,"16/02/2024 21:39:10",166635,2,"task-v7r7",NA,35237644,10410440,NA,"complete",NA,"65cfb45ed03608ff7096d8f5","computer","Desktop or Laptop","Linux x86_64","Chrome 120.0.0.0","412x846","1113x1939",NA,NA,0,"Task Introduction and Instructions (re-introduce video and audio) (Clone)",3,"DECFBGAHJI","Passed AC2","","Spreadsheet1",1,"Task Instructions","Screen 4","spepx9",7,"continue","",10854.82,10838.174,10854.82,10854.82,10838.174,10854.82,1,10854.82,0,0,NA,"Click To Continue","Continue Button",2,"object-9","Task Instructions",NA,"SUPPRF04615"
"9",1708112357792,"16/02/2024 19:39:17",1708115957792,1,"16/02/2024 21:39:17",166635,2,"task-v7r7",NA,35237644,10410440,NA,"complete",NA,"65cfb45ed03608ff7096d8f5","computer","Desktop or Laptop","Linux x86_64","Chrome 120.0.0.0","412x846","1113x1939",NA,NA,0,"Task Introduction and Instructions (re-introduce video and audio) (Clone)",3,"DECFBGAHJI","Passed AC2","","Spreadsheet1",1,"Task Instructions","Screen 5","8nvnao",8,"continue","",7278.20600000001,7275.25200000001,7278.20600000001,7278.20600000001,7275.25200000001,7278.20600000001,1,7278.20600000001,0,0,NA,"Click To Continue","Continue Button",2,"object-44","Task Instructions",NA,"SUPPRF04615"
"10",1708112357863,"16/02/2024 19:39:17",1708115957863,1,"16/02/2024 21:39:17",166635,2,"task-v7r7",NA,35237644,10410440,NA,"complete",NA,"65cfb45ed03608ff7096d8f5","computer","Desktop or Laptop","Linux x86_64","Chrome 120.0.0.0","412x846","1113x1939",NA,NA,0,"Task Introduction and Instructions (re-introduce video and audio) (Clone)",3,"DECFBGAHJI","Passed AC2","","Spreadsheet1",NA,"","","",NA,"5","END",NA,NA,NA,NA,NA,NA,0,NA,NA,NA,NA,"","",NA,"","",NA,"SUPPRF04615"
"1",1708112166000,"16/02/2024 19:36:06",1708112166000,0,"16/02/2024 19:36:06",166635,2,"task-v7r7",NA,35237628,10410473,NA,"complete",NA,"65cfb5f8f1264ee93bd8ff8d","computer","Desktop or Laptop","Mac OS 10.15.7","Chrome 108.0.0.0","1440x900","1440x821",NA,NA,0,"Task Introduction and Instructions (re-introduce video and audio) (Clone)",3,"EFDGCHBIAJ","Passed AC2","","Spreadsheet1",NA,"","","",NA,"5","BEGIN",NA,NA,NA,NA,NA,NA,0,NA,NA,NA,NA,"","",NA,"","",NA,"SUPPRF24224"
"2",1708112171220,"16/02/2024 19:36:11",1708112171220,0,"16/02/2024 19:36:11",166635,2,"task-v7r7",NA,35237628,10410473,NA,"complete",NA,"65cfb5f8f1264ee93bd8ff8d","computer","Desktop or Laptop","Mac OS 10.15.7","Chrome 108.0.0.0","1440x900","1440x821",NA,NA,0,"Task Introduction and Instructions (re-introduce video and audio) (Clone)",3,"EFDGCHBIAJ","Passed AC2","","Spreadsheet1",1,"Task Instructions","Screen 1","anr7sn",1,"continue","",5096.855,5080.144,5096.855,5096.855,5080.144,5096.855,1,5096.855,0,0,NA,"Click To Continue","Continue Button",3,"object-60","Task Instructions",NA,"SUPPRF24224"
"3",1708112185870,"16/02/2024 19:36:25",1708112185870,0,"16/02/2024 19:36:25",166635,2,"task-v7r7",NA,35237628,10410473,NA,"complete",NA,"65cfb5f8f1264ee93bd8ff8d","computer","Desktop or Laptop","Mac OS 10.15.7","Chrome 108.0.0.0","1440x900","1440x821",NA,NA,0,"Task Introduction and Instructions (re-introduce video and audio) (Clone)",3,"EFDGCHBIAJ","Passed AC2","","Spreadsheet1",1,"Task Instructions","Screen 2","ce2tc8",2,"continue","",14672.469,14655.758,14672.469,14672.469,14655.758,14672.469,1,14672.469,0,0,NA,"Click To Continue","Continue Button",3,"object-59","Task Instructions",NA,"SUPPRF24224"
"4",1708112194358,"16/02/2024 19:36:34",1708112194358,0,"16/02/2024 19:36:34",166635,2,"task-v7r7",NA,35237628,10410473,NA,"complete",NA,"65cfb5f8f1264ee93bd8ff8d","computer","Desktop or Laptop","Mac OS 10.15.7","Chrome 108.0.0.0","1440x900","1440x821",NA,NA,0,"Task Introduction and Instructions (re-introduce video and audio) (Clone)",3,"EFDGCHBIAJ","Passed AC2","","Spreadsheet1",1,"Task Instructions","Screen 3","1qtc8v",3,"continue","",8506.123,8489.412,8506.123,8506.123,8489.412,8506.123,1,8506.123,0,0,NA,"Click To Continue","Continue Button",2,"object-2983","Task Instructions",NA,"SUPPRF24224"
"5",1708112208179,"16/02/2024 19:36:48",1708112208179,0,"16/02/2024 19:36:48",166635,2,"task-v7r7",NA,35237628,10410473,NA,"complete",NA,"65cfb5f8f1264ee93bd8ff8d","computer","Desktop or Laptop","Mac OS 10.15.7","Chrome 108.0.0.0","1440x900","1440x821",NA,NA,0,"Task Introduction and Instructions (re-introduce video and audio) (Clone)",3,"EFDGCHBIAJ","Passed AC2","","Spreadsheet1",1,"Task Instructions","Screen 12","1a4vu2",4,"continue","",13837.086,13820.375,13837.086,13837.086,13820.375,13837.086,1,13837.086,0,0,NA,"Click To Continue","Continue Button",2,"object-2466","Task Instructions",NA,"SUPPRF24224"
"6",1708112431845,"16/02/2024 19:40:31",1708112431845,0,"16/02/2024 19:40:31",166635,2,"task-v7r7",NA,35237628,10410473,NA,"complete",NA,"65cfb5f8f1264ee93bd8ff8d","computer","Desktop or Laptop","Mac OS 10.15.7","Chrome 108.0.0.0","1440x900","1440x821",NA,NA,0,"Task Introduction and Instructions (re-introduce video and audio) (Clone)",3,"EFDGCHBIAJ","Passed AC2","","Spreadsheet1",1,"Task Instructions","Screen 13","q9vwda",5,"continue","",223680.685,223663.974,223680.685,223680.685,223663.974,223680.685,1,223680.685,0,0,NA,"Click To Continue","Continue Button",2,"object-2989","Task Instructions",NA,"SUPPRF24224"
"7",1708112880213,"16/02/2024 19:48:00",1708112880213,0,"16/02/2024 19:48:00",166635,2,"task-v7r7",NA,35237628,10410473,NA,"complete",NA,"65cfb5f8f1264ee93bd8ff8d","computer","Desktop or Laptop","Mac OS 10.15.7","Chrome 108.0.0.0","1440x900","1440x821",NA,NA,0,"Task Introduction and Instructions (re-introduce video and audio) (Clone)",3,"EFDGCHBIAJ","Passed AC2","","Spreadsheet1",1,"Task Instructions","Screen 11","oyulb7",6,"continue","",448380.757,448364.046,448380.757,448380.757,448364.046,448380.757,1,448380.757,0,0,NA,"Click To Continue","Continue Button",2,"object-52","Task Instructions",NA,"SUPPRF24224"
"8",1708113187519,"16/02/2024 19:53:07",1708113187519,0,"16/02/2024 19:53:07",166635,2,"task-v7r7",NA,35237628,10410473,NA,"complete",NA,"65cfb5f8f1264ee93bd8ff8d","computer","Desktop or Laptop","Mac OS 10.15.7","Chrome 108.0.0.0","1440x900","1440x821",NA,NA,0,"Task Introduction and Instructions (re-introduce video and audio) (Clone)",3,"EFDGCHBIAJ","Passed AC2","","Spreadsheet1",1,"Task Instructions","Screen 4","spepx9",7,"continue","",307321.402999952,307315.29,307321.402999952,307321.402999952,307315.29,307321.402999952,1,307321.402999952,0,0,NA,"Click To Continue","Continue Button",2,"object-9","Task Instructions",NA,"SUPPRF24224"
"9",1708113191279,"16/02/2024 19:53:11",1708113191279,0,"16/02/2024 19:53:11",166635,2,"task-v7r7",NA,35237628,10410473,NA,"complete",NA,"65cfb5f8f1264ee93bd8ff8d","computer","Desktop or Laptop","Mac OS 10.15.7","Chrome 108.0.0.0","1440x900","1440x821",NA,NA,0,"Task Introduction and Instructions (re-introduce video and audio) (Clone)",3,"EFDGCHBIAJ","Passed AC2","","Spreadsheet1",1,"Task Instructions","Screen 5","8nvnao",8,"continue","",3765.41299999994,3748.70199999993,3765.41299999994,3765.41299999994,3748.70199999993,3765.41299999994,1,3765.41299999994,0,0,NA,"Click To Continue","Continue Button",2,"object-44","Task Instructions",NA,"SUPPRF24224"
"10",1708113191283,"16/02/2024 19:53:11",1708113191283,0,"16/02/2024 19:53:11",166635,2,"task-v7r7",NA,35237628,10410473,NA,"complete",NA,"65cfb5f8f1264ee93bd8ff8d","computer","Desktop or Laptop","Mac OS 10.15.7","Chrome 108.0.0.0","1440x900","1440x821",NA,NA,0,"Task Introduction and Instructions (re-introduce video and audio) (Clone)",3,"EFDGCHBIAJ","Passed AC2","","Spreadsheet1",NA,"","","",NA,"5","END",NA,NA,NA,NA,NA,NA,0,NA,NA,NA,NA,"","",NA,"","",NA,"SUPPRF24224"
"1",1708112582380,"16/02/2024 19:43:02",1708112582380,0,"16/02/2024 19:43:02",166635,2,"task-v7r7",NA,35237832,10410522,NA,"complete",NA,"65cfb67cb613ac74bfe89d1a","computer","Desktop or Laptop","Windows 10","Chrome 121.0.0.0","1366x768","1366x607",NA,NA,0,"Task Introduction and Instructions (re-introduce video and audio) (Clone)",3,"IJHAGBFCED","Passed AC2","","Spreadsheet1",NA,"","","",NA,"5","BEGIN",NA,NA,NA,NA,NA,NA,0,NA,NA,NA,NA,"","",NA,"","",NA,"SUPPRF54678"
"2",1708112589173,"16/02/2024 19:43:09",1708112589173,0,"16/02/2024 19:43:09",166635,2,"task-v7r7",NA,35237832,10410522,NA,"complete",NA,"65cfb67cb613ac74bfe89d1a","computer","Desktop or Laptop","Windows 10","Chrome 121.0.0.0","1366x768","1366x607",NA,NA,0,"Task Introduction and Instructions (re-introduce video and audio) (Clone)",3,"IJHAGBFCED","Passed AC2","","Spreadsheet1",1,"Task Instructions","Screen 1","anr7sn",1,"continue","",6495.59999980926,6482.4,6495.59999980926,6495.59999980926,6482.4,6495.59999980926,1,6495.59999980926,0,0,NA,"Click To Continue","Continue Button",3,"object-60","Task Instructions",NA,"SUPPRF54678"
"3",1708112612640,"16/02/2024 19:43:32",1708112612640,0,"16/02/2024 19:43:32",166635,2,"task-v7r7",NA,35237832,10410522,NA,"complete",NA,"65cfb67cb613ac74bfe89d1a","computer","Desktop or Laptop","Windows 10","Chrome 121.0.0.0","1366x768","1366x607",NA,NA,0,"Task Introduction and Instructions (re-introduce video and audio) (Clone)",3,"IJHAGBFCED","Passed AC2","","Spreadsheet1",1,"Task Instructions","Screen 2","ce2tc8",2,"continue","",23479.6,23463,23479.6,23479.6,23463,23479.6,1,23479.6,0,0,NA,"Click To Continue","Continue Button",3,"object-59","Task Instructions",NA,"SUPPRF54678"
"4",1708112620052,"16/02/2024 19:43:40",1708112620052,0,"16/02/2024 19:43:40",166635,2,"task-v7r7",NA,35237832,10410522,NA,"complete",NA,"65cfb67cb613ac74bfe89d1a","computer","Desktop or Laptop","Windows 10","Chrome 121.0.0.0","1366x768","1366x607",NA,NA,0,"Task Introduction and Instructions (re-introduce video and audio) (Clone)",3,"IJHAGBFCED","Passed AC2","","Spreadsheet1",1,"Task Instructions","Screen 3","1qtc8v",3,"continue","",7429.90000009537,7415.6,7429.90000009537,7429.90000009537,7415.6,7429.90000009537,1,7429.90000009537,0,0,NA,"Click To Continue","Continue Button",2,"object-2983","Task Instructions",NA,"SUPPRF54678"
"5",1708112636941,"16/02/2024 19:43:56",1708112636941,0,"16/02/2024 19:43:56",166635,2,"task-v7r7",NA,35237832,10410522,NA,"complete",NA,"65cfb67cb613ac74bfe89d1a","computer","Desktop or Laptop","Windows 10","Chrome 121.0.0.0","1366x768","1366x607",NA,NA,0,"Task Introduction and Instructions (re-introduce video and audio) (Clone)",3,"IJHAGBFCED","Passed AC2","","Spreadsheet1",1,"Task Instructions","Screen 12","1a4vu2",4,"continue","",16903.1999997139,16897.4,16903.1999997139,16903.1999997139,16897.4,16903.1999997139,1,16903.1999997139,0,0,NA,"Click To Continue","Continue Button",2,"object-2466","Task Instructions",NA,"SUPPRF54678"
"6",1708112643170,"16/02/2024 19:44:03",1708112643170,0,"16/02/2024 19:44:03",166635,2,"task-v7r7",NA,35237832,10410522,NA,"complete",NA,"65cfb67cb613ac74bfe89d1a","computer","Desktop or Laptop","Windows 10","Chrome 121.0.0.0","1366x768","1366x607",NA,NA,0,"Task Introduction and Instructions (re-introduce video and audio) (Clone)",3,"IJHAGBFCED","Passed AC2","","Spreadsheet1",1,"Task Instructions","Screen 13","q9vwda",5,"continue","",6232.7,6215.9,6232.7,6232.7,6215.9,6232.7,1,6232.7,0,0,NA,"Click To Continue","Continue Button",2,"object-2989","Task Instructions",NA,"SUPPRF54678"
"7",1708112647543,"16/02/2024 19:44:07",1708112647543,0,"16/02/2024 19:44:07",166635,2,"task-v7r7",NA,35237832,10410522,NA,"complete",NA,"65cfb67cb613ac74bfe89d1a","computer","Desktop or Laptop","Windows 10","Chrome 121.0.0.0","1366x768","1366x607",NA,NA,0,"Task Introduction and Instructions (re-introduce video and audio) (Clone)",3,"IJHAGBFCED","Passed AC2","","Spreadsheet1",1,"Task Instructions","Screen 11","oyulb7",6,"continue","",4391.3999997139,4382.4,4391.3999997139,4391.3999997139,4382.4,4391.3999997139,1,4391.3999997139,0,0,NA,"Click To Continue","Continue Button",2,"object-52","Task Instructions",NA,"SUPPRF54678"
"8",1708112663218,"16/02/2024 19:44:23",1708112663218,0,"16/02/2024 19:44:23",166635,2,"task-v7r7",NA,35237832,10410522,NA,"complete",NA,"65cfb67cb613ac74bfe89d1a","computer","Desktop or Laptop","Windows 10","Chrome 121.0.0.0","1366x768","1366x607",NA,NA,0,"Task Introduction and Instructions (re-introduce video and audio) (Clone)",3,"IJHAGBFCED","Passed AC2","","Spreadsheet1",1,"Task Instructions","Screen 4","spepx9",7,"continue","",15684.7999999046,15680.8,15684.7999999046,15684.7999999046,15680.8,15684.7999999046,1,15684.7999999046,0,0,NA,"Click To Continue","Continue Button",2,"object-9","Task Instructions",NA,"SUPPRF54678"
"9",1708112667185,"16/02/2024 19:44:27",1708112667185,0,"16/02/2024 19:44:27",166635,2,"task-v7r7",NA,35237832,10410522,NA,"complete",NA,"65cfb67cb613ac74bfe89d1a","computer","Desktop or Laptop","Windows 10","Chrome 121.0.0.0","1366x768","1366x607",NA,NA,0,"Task Introduction and Instructions (re-introduce video and audio) (Clone)",3,"IJHAGBFCED","Passed AC2","","Spreadsheet1",1,"Task Instructions","Screen 5","8nvnao",8,"continue","",3970.49999990463,3966.2,3970.49999990463,3970.49999990463,3966.2,3970.49999990463,1,3970.49999990463,0,0,NA,"Click To Continue","Continue Button",2,"object-44","Task Instructions",NA,"SUPPRF54678"
"10",1708112667190,"16/02/2024 19:44:27",1708112667190,0,"16/02/2024 19:44:27",166635,2,"task-v7r7",NA,35237832,10410522,NA,"complete",NA,"65cfb67cb613ac74bfe89d1a","computer","Desktop or Laptop","Windows 10","Chrome 121.0.0.0","1366x768","1366x607",NA,NA,0,"Task Introduction and Instructions (re-introduce video and audio) (Clone)",3,"IJHAGBFCED","Passed AC2","","Spreadsheet1",NA,"","","",NA,"5","END",NA,NA,NA,NA,NA,NA,0,NA,NA,NA,NA,"","",NA,"","",NA,"SUPPRF54678"
"1",1708112886090,"16/02/2024 19:48:06",1708112886090,0,"16/02/2024 19:48:06",166635,2,"task-v7r7",NA,35238022,10410544,NA,"complete",NA,"65cfb775739cdfcf63af397d","computer","Desktop or Laptop","Mac OS 10.16.0","Chrome 69.0.3497.100","1280x800","1200x590",NA,NA,0,"Task Introduction and Instructions (re-introduce video and audio) (Clone)",3,"JAIBHCGDFE","Passed AC2","","Spreadsheet1",NA,"","","",NA,"5","BEGIN",NA,NA,NA,NA,NA,NA,0,NA,NA,NA,NA,"","",NA,"","",NA,"SUPPRF68806"
"2",1708112889995,"16/02/2024 19:48:09",1708112889995,0,"16/02/2024 19:48:09",166635,2,"task-v7r7",NA,35238022,10410544,NA,"complete",NA,"65cfb775739cdfcf63af397d","computer","Desktop or Laptop","Mac OS 10.16.0","Chrome 69.0.3497.100","1280x800","1200x590",NA,NA,0,"Task Introduction and Instructions (re-introduce video and audio) (Clone)",3,"JAIBHCGDFE","Passed AC2","","Spreadsheet1",1,"Task Instructions","Screen 1","anr7sn",1,"continue","",3713.79199999953,3701.406,3713.79199999953,3713.79199999953,3701.406,3713.79199999953,1,3713.79199999953,0,0,NA,"Click To Continue","Continue Button",3,"object-60","Task Instructions",NA,"SUPPRF68806"
"3",1708112902079,"16/02/2024 19:48:22",1708112902079,0,"16/02/2024 19:48:22",166635,2,"task-v7r7",NA,35238022,10410544,NA,"complete",NA,"65cfb775739cdfcf63af397d","computer","Desktop or Laptop","Mac OS 10.16.0","Chrome 69.0.3497.100","1280x800","1200x590",NA,NA,0,"Task Introduction and Instructions (re-introduce video and audio) (Clone)",3,"JAIBHCGDFE","Passed AC2","","Spreadsheet1",1,"Task Instructions","Screen 2","ce2tc8",2,"continue","",12101.3859999776,12095.502,12101.3859999776,12101.3859999776,12095.502,12101.3859999776,1,12101.3859999776,0,0,NA,"Click To Continue","Continue Button",3,"object-59","Task Instructions",NA,"SUPPRF68806"
"4",1708112914630,"16/02/2024 19:48:34",1708112914630,0,"16/02/2024 19:48:34",166635,2,"task-v7r7",NA,35238022,10410544,NA,"complete",NA,"65cfb775739cdfcf63af397d","computer","Desktop or Laptop","Mac OS 10.16.0","Chrome 69.0.3497.100","1280x800","1200x590",NA,NA,0,"Task Introduction and Instructions (re-introduce video and audio) (Clone)",3,"JAIBHCGDFE","Passed AC2","","Spreadsheet1",1,"Task Instructions","Screen 3","1qtc8v",3,"continue","",12554.769,12538.096,12554.769,12554.769,12538.096,12554.769,1,12554.769,0,0,NA,"Click To Continue","Continue Button",2,"object-2983","Task Instructions",NA,"SUPPRF68806"
"5",1708112930729,"16/02/2024 19:48:50",1708112930729,0,"16/02/2024 19:48:50",166635,2,"task-v7r7",NA,35238022,10410544,NA,"complete",NA,"65cfb775739cdfcf63af397d","computer","Desktop or Laptop","Mac OS 10.16.0","Chrome 69.0.3497.100","1280x800","1200x590",NA,NA,0,"Task Introduction and Instructions (re-introduce video and audio) (Clone)",3,"JAIBHCGDFE","Passed AC2","","Spreadsheet1",1,"Task Instructions","Screen 12","1a4vu2",4,"continue","",16115.79,16099.117,16115.79,16115.79,16099.117,16115.79,1,16115.79,0,0,NA,"Click To Continue","Continue Button",2,"object-2466","Task Instructions",NA,"SUPPRF68806"
"6",1708112935914,"16/02/2024 19:48:55",1708112935914,0,"16/02/2024 19:48:55",166635,2,"task-v7r7",NA,35238022,10410544,NA,"complete",NA,"65cfb775739cdfcf63af397d","computer","Desktop or Laptop","Mac OS 10.16.0","Chrome 69.0.3497.100","1280x800","1200x590",NA,NA,0,"Task Introduction and Instructions (re-introduce video and audio) (Clone)",3,"JAIBHCGDFE","Passed AC2","","Spreadsheet1",1,"Task Instructions","Screen 13","q9vwda",5,"continue","",5203.77100000335,5200.835,5203.77100000335,5203.77100000335,5200.835,5203.77100000335,1,5203.77100000335,0,0,NA,"Click To Continue","Continue Button",2,"object-2989","Task Instructions",NA,"SUPPRF68806"
"7",1708112939591,"16/02/2024 19:48:59",1708112939591,0,"16/02/2024 19:48:59",166635,2,"task-v7r7",NA,35238022,10410544,NA,"complete",NA,"65cfb775739cdfcf63af397d","computer","Desktop or Laptop","Mac OS 10.16.0","Chrome 69.0.3497.100","1280x800","1200x590",NA,NA,0,"Task Introduction and Instructions (re-introduce video and audio) (Clone)",3,"JAIBHCGDFE","Passed AC2","","Spreadsheet1",1,"Task Instructions","Screen 11","oyulb7",6,"continue","",3680.13599997979,3668.06,3680.13599997979,3680.13599997979,3668.06,3680.13599997979,1,3680.13599997979,0,0,NA,"Click To Continue","Continue Button",2,"object-52","Task Instructions",NA,"SUPPRF68806"
"8",1708112942673,"16/02/2024 19:49:02",1708112942673,0,"16/02/2024 19:49:02",166635,2,"task-v7r7",NA,35238022,10410544,NA,"complete",NA,"65cfb775739cdfcf63af397d","computer","Desktop or Laptop","Mac OS 10.16.0","Chrome 69.0.3497.100","1280x800","1200x590",NA,NA,0,"Task Introduction and Instructions (re-introduce video and audio) (Clone)",3,"JAIBHCGDFE","Passed AC2","","Spreadsheet1",1,"Task Instructions","Screen 4","spepx9",7,"continue","",3094.57599999841,3090.507,3094.57599999841,3094.57599999841,3090.507,3094.57599999841,1,3094.57599999841,0,0,NA,"Click To Continue","Continue Button",2,"object-9","Task Instructions",NA,"SUPPRF68806"
"9",1708112945407,"16/02/2024 19:49:05",1708112945407,0,"16/02/2024 19:49:05",166635,2,"task-v7r7",NA,35238022,10410544,NA,"complete",NA,"65cfb775739cdfcf63af397d","computer","Desktop or Laptop","Mac OS 10.16.0","Chrome 69.0.3497.100","1280x800","1200x590",NA,NA,0,"Task Introduction and Instructions (re-introduce video and audio) (Clone)",3,"JAIBHCGDFE","Passed AC2","","Spreadsheet1",1,"Task Instructions","Screen 5","8nvnao",8,"continue","",2736.86899999637,2734.372,2736.86899999637,2736.86899999637,2734.372,2736.86899999637,1,2736.86899999637,0,0,NA,"Click To Continue","Continue Button",2,"object-44","Task Instructions",NA,"SUPPRF68806"
"10",1708112945412,"16/02/2024 19:49:05",1708112945412,0,"16/02/2024 19:49:05",166635,2,"task-v7r7",NA,35238022,10410544,NA,"complete",NA,"65cfb775739cdfcf63af397d","computer","Desktop or Laptop","Mac OS 10.16.0","Chrome 69.0.3497.100","1280x800","1200x590",NA,NA,0,"Task Introduction and Instructions (re-introduce video and audio) (Clone)",3,"JAIBHCGDFE","Passed AC2","","Spreadsheet1",NA,"","","",NA,"5","END",NA,NA,NA,NA,NA,NA,0,NA,NA,NA,NA,"","",NA,"","",NA,"SUPPRF68806"
"1",1708106966136,"16/02/2024 18:09:26",1708078166136,-8,"16/02/2024 02:09:26",166635,2,"task-v7r7",NA,35235689,10409670,NA,"complete",NA,"65cf9bdd7baa2a49168d0052","computer","Desktop or Laptop","Windows 10","Chrome 121.0.0.0","1600x900","1600x765",NA,NA,0,"Task Introduction and Instructions (re-introduce video and audio) (Clone)",3,"BCADJEIFHG","Passed AC2","","Spreadsheet1",NA,"","","",NA,"5","BEGIN",NA,NA,NA,NA,NA,NA,0,NA,NA,NA,NA,"","",NA,"","",NA,"SUPPRF14876"
"2",1708106978319,"16/02/2024 18:09:38",1708078178319,-8,"16/02/2024 02:09:38",166635,2,"task-v7r7",NA,35235689,10409670,NA,"complete",NA,"65cf9bdd7baa2a49168d0052","computer","Desktop or Laptop","Windows 10","Chrome 121.0.0.0","1600x900","1600x765",NA,NA,0,"Task Introduction and Instructions (re-introduce video and audio) (Clone)",3,"BCADJEIFHG","Passed AC2","","Spreadsheet1",1,"Task Instructions","Screen 1","anr7sn",1,"continue","",8045.4,8020.5,8045.4,8045.4,8020.5,8045.4,1,8045.4,0,0,NA,"Click To Continue","Continue Button",3,"object-60","Task Instructions",NA,"SUPPRF14876"
"3",1708107001339,"16/02/2024 18:10:01",1708078201339,-8,"16/02/2024 02:10:01",166635,2,"task-v7r7",NA,35235689,10409670,NA,"complete",NA,"65cf9bdd7baa2a49168d0052","computer","Desktop or Laptop","Windows 10","Chrome 121.0.0.0","1600x900","1600x765",NA,NA,0,"Task Introduction and Instructions (re-introduce video and audio) (Clone)",3,"BCADJEIFHG","Passed AC2","","Spreadsheet1",1,"Task Instructions","Screen 2","ce2tc8",2,"continue","",23046.899999997,23037.7,23046.899999997,23046.899999997,23037.7,23046.899999997,1,23046.899999997,0,0,NA,"Click To Continue","Continue Button",3,"object-59","Task Instructions",NA,"SUPPRF14876"
"4",1708107011874,"16/02/2024 18:10:11",1708078211874,-8,"16/02/2024 02:10:11",166635,2,"task-v7r7",NA,35235689,10409670,NA,"complete",NA,"65cf9bdd7baa2a49168d0052","computer","Desktop or Laptop","Windows 10","Chrome 121.0.0.0","1600x900","1600x765",NA,NA,0,"Task Introduction and Instructions (re-introduce video and audio) (Clone)",3,"BCADJEIFHG","Passed AC2","","Spreadsheet1",1,"Task Instructions","Screen 3","1qtc8v",3,"continue","",10544.5,10519.4,10544.5,10544.5,10519.4,10544.5,1,10544.5,0,0,NA,"Click To Continue","Continue Button",2,"object-2983","Task Instructions",NA,"SUPPRF14876"
"5",1708107026764,"16/02/2024 18:10:26",1708078226764,-8,"16/02/2024 02:10:26",166635,2,"task-v7r7",NA,35235689,10409670,NA,"complete",NA,"65cf9bdd7baa2a49168d0052","computer","Desktop or Laptop","Windows 10","Chrome 121.0.0.0","1600x900","1600x765",NA,NA,0,"Task Introduction and Instructions (re-introduce video and audio) (Clone)",3,"BCADJEIFHG","Passed AC2","","Spreadsheet1",1,"Task Instructions","Screen 12","1a4vu2",4,"continue","",14913.799999997,14892,14913.799999997,14913.799999997,14892,14913.799999997,1,14913.799999997,0,0,NA,"Click To Continue","Continue Button",2,"object-2466","Task Instructions",NA,"SUPPRF14876"
"6",1708107046898,"16/02/2024 18:10:46",1708078246898,-8,"16/02/2024 02:10:46",166635,2,"task-v7r7",NA,35235689,10409670,NA,"complete",NA,"65cf9bdd7baa2a49168d0052","computer","Desktop or Laptop","Windows 10","Chrome 121.0.0.0","1600x900","1600x765",NA,NA,0,"Task Introduction and Instructions (re-introduce video and audio) (Clone)",3,"BCADJEIFHG","Passed AC2","","Spreadsheet1",1,"Task Instructions","Screen 13","q9vwda",5,"continue","",20156.1999999881,20139.1,20156.1999999881,20156.1999999881,20139.1,20156.1999999881,1,20156.1999999881,0,0,NA,"Click To Continue","Continue Button",2,"object-2989","Task Instructions",NA,"SUPPRF14876"
"7",1708107053296,"16/02/2024 18:10:53",1708078253296,-8,"16/02/2024 02:10:53",166635,2,"task-v7r7",NA,35235689,10409670,NA,"complete",NA,"65cf9bdd7baa2a49168d0052","computer","Desktop or Laptop","Windows 10","Chrome 121.0.0.0","1600x900","1600x765",NA,NA,0,"Task Introduction and Instructions (re-introduce video and audio) (Clone)",3,"BCADJEIFHG","Passed AC2","","Spreadsheet1",1,"Task Instructions","Screen 11","oyulb7",6,"continue","",6415.49999999403,6396.5,6415.49999999403,6415.49999999403,6396.5,6415.49999999403,1,6415.49999999403,0,0,NA,"Click To Continue","Continue Button",2,"object-52","Task Instructions",NA,"SUPPRF14876"
"8",1708107058635,"16/02/2024 18:10:58",1708078258635,-8,"16/02/2024 02:10:58",166635,2,"task-v7r7",NA,35235689,10409670,NA,"complete",NA,"65cf9bdd7baa2a49168d0052","computer","Desktop or Laptop","Windows 10","Chrome 121.0.0.0","1600x900","1600x765",NA,NA,0,"Task Introduction and Instructions (re-introduce video and audio) (Clone)",3,"BCADJEIFHG","Passed AC2","","Spreadsheet1",1,"Task Instructions","Screen 4","spepx9",7,"continue","",5357.09999998807,5347.59999999999,5357.09999998807,5357.09999998807,5347.59999999999,5357.09999998807,1,5357.09999998807,0,0,NA,"Click To Continue","Continue Button",2,"object-9","Task Instructions",NA,"SUPPRF14876"
"9",1708107064066,"16/02/2024 18:11:04",1708078264066,-8,"16/02/2024 02:11:04",166635,2,"task-v7r7",NA,35235689,10409670,NA,"complete",NA,"65cf9bdd7baa2a49168d0052","computer","Desktop or Laptop","Windows 10","Chrome 121.0.0.0","1600x900","1600x765",NA,NA,0,"Task Introduction and Instructions (re-introduce video and audio) (Clone)",3,"BCADJEIFHG","Passed AC2","","Spreadsheet1",1,"Task Instructions","Screen 5","8nvnao",8,"continue","",5441.09999999702,5421.7,5441.09999999702,5441.09999999702,5421.7,5441.09999999702,1,5441.09999999702,0,0,NA,"Click To Continue","Continue Button",2,"object-44","Task Instructions",NA,"SUPPRF14876"
"10",1708107064101,"16/02/2024 18:11:04",1708078264101,-8,"16/02/2024 02:11:04",166635,2,"task-v7r7",NA,35235689,10409670,NA,"complete",NA,"65cf9bdd7baa2a49168d0052","computer","Desktop or Laptop","Windows 10","Chrome 121.0.0.0","1600x900","1600x765",NA,NA,0,"Task Introduction and Instructions (re-introduce video and audio) (Clone)",3,"BCADJEIFHG","Passed AC2","","Spreadsheet1",NA,"","","",NA,"5","END",NA,NA,NA,NA,NA,NA,0,NA,NA,NA,NA,"","",NA,"","",NA,"SUPPRF14876"
"1",1708106479738,"16/02/2024 18:01:19",1708110079738,1,"16/02/2024 20:01:19",166635,2,"task-v7r7",NA,35235409,10409683,NA,"complete",NA,"65cf9c591522a6a49d012188","computer","Desktop or Laptop","Windows 10","Chrome 121.0.0.0","1280x720","1280x632",NA,NA,0,"Task Introduction and Instructions (re-introduce video and audio) (Clone)",3,"ABJCIDHEGF","Failed AC2","Passed AC1","Spreadsheet1",NA,"","","",NA,"5","BEGIN",NA,NA,NA,NA,NA,NA,0,NA,NA,NA,NA,"","",NA,"","",NA,"SUPPRF61541"
"2",1708106487317,"16/02/2024 18:01:27",1708110087317,1,"16/02/2024 20:01:27",166635,2,"task-v7r7",NA,35235409,10409683,NA,"complete",NA,"65cf9c591522a6a49d012188","computer","Desktop or Laptop","Windows 10","Chrome 121.0.0.0","1280x720","1280x632",NA,NA,0,"Task Introduction and Instructions (re-introduce video and audio) (Clone)",3,"ABJCIDHEGF","Failed AC2","Passed AC1","Spreadsheet1",1,"Task Instructions","Screen 1","anr7sn",1,"continue","",4593.49999995232,4579.3,4593.49999995232,4593.49999995232,4579.3,4593.49999995232,1,4593.49999995232,0,0,NA,"Click To Continue","Continue Button",3,"object-60","Task Instructions",NA,"SUPPRF61541"
"3",1708106496308,"16/02/2024 18:01:36",1708110096308,1,"16/02/2024 20:01:36",166635,2,"task-v7r7",NA,35235409,10409683,NA,"complete",NA,"65cf9c591522a6a49d012188","computer","Desktop or Laptop","Windows 10","Chrome 121.0.0.0","1280x720","1280x632",NA,NA,0,"Task Introduction and Instructions (re-introduce video and audio) (Clone)",3,"ABJCIDHEGF","Failed AC2","Passed AC1","Spreadsheet1",1,"Task Instructions","Screen 2","ce2tc8",2,"continue","",9005.4,8991.8,9005.4,9005.4,8991.8,9005.4,1,9005.4,0,0,NA,"Click To Continue","Continue Button",3,"object-59","Task Instructions",NA,"SUPPRF61541"
"4",1708106503810,"16/02/2024 18:01:43",1708110103810,1,"16/02/2024 20:01:43",166635,2,"task-v7r7",NA,35235409,10409683,NA,"complete",NA,"65cf9c591522a6a49d012188","computer","Desktop or Laptop","Windows 10","Chrome 121.0.0.0","1280x720","1280x632",NA,NA,0,"Task Introduction and Instructions (re-introduce video and audio) (Clone)",3,"ABJCIDHEGF","Failed AC2","Passed AC1","Spreadsheet1",1,"Task Instructions","Screen 3","1qtc8v",3,"continue","",7515.99999985695,7509.7,7515.99999985695,7515.99999985695,7509.7,7515.99999985695,1,7515.99999985695,0,0,NA,"Click To Continue","Continue Button",2,"object-2983","Task Instructions",NA,"SUPPRF61541"
"5",1708106517077,"16/02/2024 18:01:57",1708110117077,1,"16/02/2024 20:01:57",166635,2,"task-v7r7",NA,35235409,10409683,NA,"complete",NA,"65cf9c591522a6a49d012188","computer","Desktop or Laptop","Windows 10","Chrome 121.0.0.0","1280x720","1280x632",NA,NA,0,"Task Introduction and Instructions (re-introduce video and audio) (Clone)",3,"ABJCIDHEGF","Failed AC2","Passed AC1","Spreadsheet1",1,"Task Instructions","Screen 12","1a4vu2",4,"continue","",13273.299999857,13270.3,13273.299999857,13273.299999857,13270.3,13273.299999857,1,13273.299999857,0,0,NA,"Click To Continue","Continue Button",2,"object-2466","Task Instructions",NA,"SUPPRF61541"
"6",1708106526151,"16/02/2024 18:02:06",1708110126151,1,"16/02/2024 20:02:06",166635,2,"task-v7r7",NA,35235409,10409683,NA,"complete",NA,"65cf9c591522a6a49d012188","computer","Desktop or Laptop","Windows 10","Chrome 121.0.0.0","1280x720","1280x632",NA,NA,0,"Task Introduction and Instructions (re-introduce video and audio) (Clone)",3,"ABJCIDHEGF","Failed AC2","Passed AC1","Spreadsheet1",1,"Task Instructions","Screen 13","q9vwda",5,"continue","",9077.1,9074.8,9077.1,9077.1,9074.8,9077.1,1,9077.1,0,0,NA,"Click To Continue","Continue Button",2,"object-2989","Task Instructions",NA,"SUPPRF61541"
"7",1708106530175,"16/02/2024 18:02:10",1708110130175,1,"16/02/2024 20:02:10",166635,2,"task-v7r7",NA,35235409,10409683,NA,"complete",NA,"65cf9c591522a6a49d012188","computer","Desktop or Laptop","Windows 10","Chrome 121.0.0.0","1280x720","1280x632",NA,NA,0,"Task Introduction and Instructions (re-introduce video and audio) (Clone)",3,"ABJCIDHEGF","Failed AC2","Passed AC1","Spreadsheet1",1,"Task Instructions","Screen 11","oyulb7",6,"continue","",4026.59999995232,4013,4026.59999995232,4026.59999995232,4013,4026.59999995232,1,4026.59999995232,0,0,NA,"Click To Continue","Continue Button",2,"object-52","Task Instructions",NA,"SUPPRF61541"
"8",1708106535611,"16/02/2024 18:02:15",1708110135611,1,"16/02/2024 20:02:15",166635,2,"task-v7r7",NA,35235409,10409683,NA,"complete",NA,"65cf9c591522a6a49d012188","computer","Desktop or Laptop","Windows 10","Chrome 121.0.0.0","1280x720","1280x632",NA,NA,0,"Task Introduction and Instructions (re-introduce video and audio) (Clone)",3,"ABJCIDHEGF","Failed AC2","Passed AC1","Spreadsheet1",1,"Task Instructions","Screen 4","spepx9",7,"continue","",5449.8,5445.2,5449.8,5449.8,5445.2,5449.8,1,5449.8,0,0,NA,"Click To Continue","Continue Button",2,"object-9","Task Instructions",NA,"SUPPRF61541"
"9",1708106538931,"16/02/2024 18:02:18",1708110138931,1,"16/02/2024 20:02:18",166635,2,"task-v7r7",NA,35235409,10409683,NA,"complete",NA,"65cf9c591522a6a49d012188","computer","Desktop or Laptop","Windows 10","Chrome 121.0.0.0","1280x720","1280x632",NA,NA,0,"Task Introduction and Instructions (re-introduce video and audio) (Clone)",3,"ABJCIDHEGF","Failed AC2","Passed AC1","Spreadsheet1",1,"Task Instructions","Screen 5","8nvnao",8,"continue","",3324.39999995232,3313.70000000001,3324.39999995232,3324.39999995232,3313.70000000001,3324.39999995232,1,3324.39999995232,0,0,NA,"Click To Continue","Continue Button",2,"object-44","Task Instructions",NA,"SUPPRF61541"
"10",1708106538953,"16/02/2024 18:02:18",1708110138953,1,"16/02/2024 20:02:18",166635,2,"task-v7r7",NA,35235409,10409683,NA,"complete",NA,"65cf9c591522a6a49d012188","computer","Desktop or Laptop","Windows 10","Chrome 121.0.0.0","1280x720","1280x632",NA,NA,0,"Task Introduction and Instructions (re-introduce video and audio) (Clone)",3,"ABJCIDHEGF","Failed AC2","Passed AC1","Spreadsheet1",NA,"","","",NA,"5","END",NA,NA,NA,NA,NA,NA,0,NA,NA,NA,NA,"","",NA,"","",NA,"SUPPRF61541"
"1",1708113175810,"16/02/2024 19:52:55",1708113175810,0,"16/02/2024 19:52:55",166635,2,"task-v7r7",NA,35238195,10410507,NA,"complete",NA,"65cfb71a6c39a6d844a84def","computer","Desktop or Laptop","Windows 10","Chrome 121.0.0.0","1536x864","1536x738",NA,NA,0,"Task Introduction and Instructions (re-introduce video and audio) (Clone)",3,"FGEHDICJBA","Passed AC2","","Spreadsheet1",NA,"","","",NA,"5","BEGIN",NA,NA,NA,NA,NA,NA,0,NA,NA,NA,NA,"","",NA,"","",NA,"SUPPRF68193"
"2",1708113179452,"16/02/2024 19:52:59",1708113179452,0,"16/02/2024 19:52:59",166635,2,"task-v7r7",NA,35238195,10410507,NA,"complete",NA,"65cfb71a6c39a6d844a84def","computer","Desktop or Laptop","Windows 10","Chrome 121.0.0.0","1536x864","1536x738",NA,NA,0,"Task Introduction and Instructions (re-introduce video and audio) (Clone)",3,"FGEHDICJBA","Passed AC2","","Spreadsheet1",1,"Task Instructions","Screen 1","anr7sn",1,"continue","",3567.10000000298,3562.4,3567.10000000298,3567.10000000298,3562.4,3567.10000000298,1,3567.10000000298,0,0,NA,"Click To Continue","Continue Button",3,"object-60","Task Instructions",NA,"SUPPRF68193"
"3",1708113184490,"16/02/2024 19:53:04",1708113184490,0,"16/02/2024 19:53:04",166635,2,"task-v7r7",NA,35238195,10410507,NA,"complete",NA,"65cfb71a6c39a6d844a84def","computer","Desktop or Laptop","Windows 10","Chrome 121.0.0.0","1536x864","1536x738",NA,NA,0,"Task Introduction and Instructions (re-introduce video and audio) (Clone)",3,"FGEHDICJBA","Passed AC2","","Spreadsheet1",1,"Task Instructions","Screen 2","ce2tc8",2,"continue","",5041.9,5034.9,5041.9,5041.9,5034.9,5041.9,1,5041.9,0,0,NA,"Click To Continue","Continue Button",3,"object-59","Task Instructions",NA,"SUPPRF68193"
"4",1708113212751,"16/02/2024 19:53:32",1708113212751,0,"16/02/2024 19:53:32",166635,2,"task-v7r7",NA,35238195,10410507,NA,"complete",NA,"65cfb71a6c39a6d844a84def","computer","Desktop or Laptop","Windows 10","Chrome 121.0.0.0","1536x864","1536x738",NA,NA,0,"Task Introduction and Instructions (re-introduce video and audio) (Clone)",3,"FGEHDICJBA","Passed AC2","","Spreadsheet1",1,"Task Instructions","Screen 3","1qtc8v",3,"continue","",28269.7000000089,28263.9,28269.7000000089,28269.7000000089,28263.9,28269.7000000089,1,28269.7000000089,0,0,NA,"Click To Continue","Continue Button",2,"object-2983","Task Instructions",NA,"SUPPRF68193"
"5",1708113217504,"16/02/2024 19:53:37",1708113217504,0,"16/02/2024 19:53:37",166635,2,"task-v7r7",NA,35238195,10410507,NA,"complete",NA,"65cfb71a6c39a6d844a84def","computer","Desktop or Laptop","Windows 10","Chrome 121.0.0.0","1536x864","1536x738",NA,NA,0,"Task Introduction and Instructions (re-introduce video and audio) (Clone)",3,"FGEHDICJBA","Passed AC2","","Spreadsheet1",1,"Task Instructions","Screen 12","1a4vu2",4,"continue","",4758.60000000596,4756.8,4758.60000000596,4758.60000000596,4756.8,4758.60000000596,1,4758.60000000596,0,0,NA,"Click To Continue","Continue Button",2,"object-2466","Task Instructions",NA,"SUPPRF68193"
"6",1708113226191,"16/02/2024 19:53:46",1708113226191,0,"16/02/2024 19:53:46",166635,2,"task-v7r7",NA,35238195,10410507,NA,"complete",NA,"65cfb71a6c39a6d844a84def","computer","Desktop or Laptop","Windows 10","Chrome 121.0.0.0","1536x864","1536x738",NA,NA,0,"Task Introduction and Instructions (re-introduce video and audio) (Clone)",3,"FGEHDICJBA","Passed AC2","","Spreadsheet1",1,"Task Instructions","Screen 13","q9vwda",5,"continue","",8688.9,8687.5,8688.9,8688.9,8687.5,8688.9,1,8688.9,0,0,NA,"Click To Continue","Continue Button",2,"object-2989","Task Instructions",NA,"SUPPRF68193"
"7",1708113230055,"16/02/2024 19:53:50",1708113230055,0,"16/02/2024 19:53:50",166635,2,"task-v7r7",NA,35238195,10410507,NA,"complete",NA,"65cfb71a6c39a6d844a84def","computer","Desktop or Laptop","Windows 10","Chrome 121.0.0.0","1536x864","1536x738",NA,NA,0,"Task Introduction and Instructions (re-introduce video and audio) (Clone)",3,"FGEHDICJBA","Passed AC2","","Spreadsheet1",1,"Task Instructions","Screen 11","oyulb7",6,"continue","",3864.9,3861.1,3864.9,3864.9,3861.1,3864.9,1,3864.9,0,0,NA,"Click To Continue","Continue Button",2,"object-52","Task Instructions",NA,"SUPPRF68193"
"8",1708113234156,"16/02/2024 19:53:54",1708113234156,0,"16/02/2024 19:53:54",166635,2,"task-v7r7",NA,35238195,10410507,NA,"complete",NA,"65cfb71a6c39a6d844a84def","computer","Desktop or Laptop","Windows 10","Chrome 121.0.0.0","1536x864","1536x738",NA,NA,0,"Task Introduction and Instructions (re-introduce video and audio) (Clone)",3,"FGEHDICJBA","Passed AC2","","Spreadsheet1",1,"Task Instructions","Screen 4","spepx9",7,"continue","",4104.70000000596,4104.10000000001,4104.70000000596,4104.70000000596,4104.10000000001,4104.70000000596,1,4104.70000000596,0,0,NA,"Click To Continue","Continue Button",2,"object-9","Task Instructions",NA,"SUPPRF68193"
"9",1708113238221,"16/02/2024 19:53:58",1708113238221,0,"16/02/2024 19:53:58",166635,2,"task-v7r7",NA,35238195,10410507,NA,"complete",NA,"65cfb71a6c39a6d844a84def","computer","Desktop or Laptop","Windows 10","Chrome 121.0.0.0","1536x864","1536x738",NA,NA,0,"Task Introduction and Instructions (re-introduce video and audio) (Clone)",3,"FGEHDICJBA","Passed AC2","","Spreadsheet1",1,"Task Instructions","Screen 5","8nvnao",8,"continue","",4065.7,4062.5,4065.7,4065.7,4062.5,4065.7,1,4065.7,0,0,NA,"Click To Continue","Continue Button",2,"object-44","Task Instructions",NA,"SUPPRF68193"
"10",1708113238225,"16/02/2024 19:53:58",1708113238225,0,"16/02/2024 19:53:58",166635,2,"task-v7r7",NA,35238195,10410507,NA,"complete",NA,"65cfb71a6c39a6d844a84def","computer","Desktop or Laptop","Windows 10","Chrome 121.0.0.0","1536x864","1536x738",NA,NA,0,"Task Introduction and Instructions (re-introduce video and audio) (Clone)",3,"FGEHDICJBA","Passed AC2","","Spreadsheet1",NA,"","","",NA,"5","END",NA,NA,NA,NA,NA,NA,0,NA,NA,NA,NA,"","",NA,"","",NA,"SUPPRF68193"
"1",1708113326609,"16/02/2024 19:55:26",1708095326609,-5,"16/02/2024 09:55:26",166635,2,"task-v7r7",NA,35238274,10410648,NA,"complete",NA,"65cfbb453bcd2ef77a27c04d","computer","Desktop or Laptop","Mac OS 10.15.7","Chrome 121.0.0.0","1440x900","1440x789",NA,NA,0,"Task Introduction and Instructions (re-introduce video and audio) (Clone)",3,"ABJCIDHEGF","Passed AC2","","Spreadsheet1",NA,"","","",NA,"5","BEGIN",NA,NA,NA,NA,NA,NA,0,NA,NA,NA,NA,"","",NA,"","",NA,"SUPPRF52996"
"2",1708113340686,"16/02/2024 19:55:40",1708095340686,-5,"16/02/2024 09:55:40",166635,2,"task-v7r7",NA,35238274,10410648,NA,"complete",NA,"65cfbb453bcd2ef77a27c04d","computer","Desktop or Laptop","Mac OS 10.15.7","Chrome 121.0.0.0","1440x900","1440x789",NA,NA,0,"Task Introduction and Instructions (re-introduce video and audio) (Clone)",3,"ABJCIDHEGF","Passed AC2","","Spreadsheet1",1,"Task Instructions","Screen 1","anr7sn",1,"continue","",13465.3000000119,13449.9,13465.3000000119,13465.3000000119,13449.9,13465.3000000119,1,13465.3000000119,0,0,NA,"Click To Continue","Continue Button",3,"object-60","Task Instructions",NA,"SUPPRF52996"
"3",1708113359088,"16/02/2024 19:55:59",1708095359088,-5,"16/02/2024 09:55:59",166635,2,"task-v7r7",NA,35238274,10410648,NA,"complete",NA,"65cfbb453bcd2ef77a27c04d","computer","Desktop or Laptop","Mac OS 10.15.7","Chrome 121.0.0.0","1440x900","1440x789",NA,NA,0,"Task Introduction and Instructions (re-introduce video and audio) (Clone)",3,"ABJCIDHEGF","Passed AC2","","Spreadsheet1",1,"Task Instructions","Screen 2","ce2tc8",2,"continue","",18417.000000006,18416,18417.000000006,18417.000000006,18416,18417.000000006,1,18417.000000006,0,0,NA,"Click To Continue","Continue Button",3,"object-59","Task Instructions",NA,"SUPPRF52996"
"4",1708113366966,"16/02/2024 19:56:06",1708095366966,-5,"16/02/2024 09:56:06",166635,2,"task-v7r7",NA,35238274,10410648,NA,"complete",NA,"65cfbb453bcd2ef77a27c04d","computer","Desktop or Laptop","Mac OS 10.15.7","Chrome 121.0.0.0","1440x900","1440x789",NA,NA,0,"Task Introduction and Instructions (re-introduce video and audio) (Clone)",3,"ABJCIDHEGF","Passed AC2","","Spreadsheet1",1,"Task Instructions","Screen 3","1qtc8v",3,"continue","",7879.20000000894,7866.9,7879.20000000894,7879.20000000894,7866.9,7879.20000000894,1,7879.20000000894,0,0,NA,"Click To Continue","Continue Button",2,"object-2983","Task Instructions",NA,"SUPPRF52996"
"5",1708113372949,"16/02/2024 19:56:12",1708095372949,-5,"16/02/2024 09:56:12",166635,2,"task-v7r7",NA,35238274,10410648,NA,"complete",NA,"65cfbb453bcd2ef77a27c04d","computer","Desktop or Laptop","Mac OS 10.15.7","Chrome 121.0.0.0","1440x900","1440x789",NA,NA,0,"Task Introduction and Instructions (re-introduce video and audio) (Clone)",3,"ABJCIDHEGF","Passed AC2","","Spreadsheet1",1,"Task Instructions","Screen 12","1a4vu2",4,"continue","",5995.00000001192,5983.3,5995.00000001192,5995.00000001192,5983.3,5995.00000001192,1,5995.00000001192,0,0,NA,"Click To Continue","Continue Button",2,"object-2466","Task Instructions",NA,"SUPPRF52996"
"6",1708113377970,"16/02/2024 19:56:17",1708095377970,-5,"16/02/2024 09:56:17",166635,2,"task-v7r7",NA,35238274,10410648,NA,"complete",NA,"65cfbb453bcd2ef77a27c04d","computer","Desktop or Laptop","Mac OS 10.15.7","Chrome 121.0.0.0","1440x900","1440x789",NA,NA,0,"Task Introduction and Instructions (re-introduce video and audio) (Clone)",3,"ABJCIDHEGF","Passed AC2","","Spreadsheet1",1,"Task Instructions","Screen 13","q9vwda",5,"continue","",5032.3,5015.6,5032.3,5032.3,5015.6,5032.3,1,5032.3,0,0,NA,"Click To Continue","Continue Button",2,"object-2989","Task Instructions",NA,"SUPPRF52996"
"7",1708113380801,"16/02/2024 19:56:20",1708095380801,-5,"16/02/2024 09:56:20",166635,2,"task-v7r7",NA,35238274,10410648,NA,"complete",NA,"65cfbb453bcd2ef77a27c04d","computer","Desktop or Laptop","Mac OS 10.15.7","Chrome 121.0.0.0","1440x900","1440x789",NA,NA,0,"Task Introduction and Instructions (re-introduce video and audio) (Clone)",3,"ABJCIDHEGF","Passed AC2","","Spreadsheet1",1,"Task Instructions","Screen 11","oyulb7",6,"continue","",2847.70000000596,2834.2,2847.70000000596,2847.70000000596,2834.2,2847.70000000596,1,2847.70000000596,0,0,NA,"Click To Continue","Continue Button",2,"object-52","Task Instructions",NA,"SUPPRF52996"
"8",1708113384873,"16/02/2024 19:56:24",1708095384873,-5,"16/02/2024 09:56:24",166635,2,"task-v7r7",NA,35238274,10410648,NA,"complete",NA,"65cfbb453bcd2ef77a27c04d","computer","Desktop or Laptop","Mac OS 10.15.7","Chrome 121.0.0.0","1440x900","1440x789",NA,NA,0,"Task Introduction and Instructions (re-introduce video and audio) (Clone)",3,"ABJCIDHEGF","Passed AC2","","Spreadsheet1",1,"Task Instructions","Screen 4","spepx9",7,"continue","",4085.80000000298,4082.4,4085.80000000298,4085.80000000298,4082.4,4085.80000000298,1,4085.80000000298,0,0,NA,"Click To Continue","Continue Button",2,"object-9","Task Instructions",NA,"SUPPRF52996"
"9",1708113387653,"16/02/2024 19:56:27",1708095387653,-5,"16/02/2024 09:56:27",166635,2,"task-v7r7",NA,35238274,10410648,NA,"complete",NA,"65cfbb453bcd2ef77a27c04d","computer","Desktop or Laptop","Mac OS 10.15.7","Chrome 121.0.0.0","1440x900","1440x789",NA,NA,0,"Task Introduction and Instructions (re-introduce video and audio) (Clone)",3,"ABJCIDHEGF","Passed AC2","","Spreadsheet1",1,"Task Instructions","Screen 5","8nvnao",8,"continue","",2783.10000000001,2766.5,2783.10000000001,2783.10000000001,2766.5,2783.10000000001,1,2783.10000000001,0,0,NA,"Click To Continue","Continue Button",2,"object-44","Task Instructions",NA,"SUPPRF52996"
"10",1708113387655,"16/02/2024 19:56:27",1708095387655,-5,"16/02/2024 09:56:27",166635,2,"task-v7r7",NA,35238274,10410648,NA,"complete",NA,"65cfbb453bcd2ef77a27c04d","computer","Desktop or Laptop","Mac OS 10.15.7","Chrome 121.0.0.0","1440x900","1440x789",NA,NA,0,"Task Introduction and Instructions (re-introduce video and audio) (Clone)",3,"ABJCIDHEGF","Passed AC2","","Spreadsheet1",NA,"","","",NA,"5","END",NA,NA,NA,NA,NA,NA,0,NA,NA,NA,NA,"","",NA,"","",NA,"SUPPRF52996"
"1",1708116245571,"16/02/2024 20:44:05",1708116245571,0,"16/02/2024 20:44:05",166635,2,"task-v7r7",NA,35239820,10410854,NA,"complete",NA,"65cfac1bb0283ebbe7149ea7","computer","Desktop or Laptop","Windows 10","Chrome 121.0.0.0","1366x768","1366x641",NA,NA,0,"Task Introduction and Instructions (re-introduce video and audio) (Clone)",3,"CDBEAFJGIH","Passed AC2","","Spreadsheet1",NA,"","","",NA,"5","BEGIN",NA,NA,NA,NA,NA,NA,0,NA,NA,NA,NA,"","",NA,"","",NA,"SUPPRF81177"
"2",1708116252728,"16/02/2024 20:44:12",1708116252728,0,"16/02/2024 20:44:12",166635,2,"task-v7r7",NA,35239820,10410854,NA,"complete",NA,"65cfac1bb0283ebbe7149ea7","computer","Desktop or Laptop","Windows 10","Chrome 121.0.0.0","1366x768","1366x641",NA,NA,0,"Task Introduction and Instructions (re-introduce video and audio) (Clone)",3,"CDBEAFJGIH","Passed AC2","","Spreadsheet1",1,"Task Instructions","Screen 1","anr7sn",1,"continue","",7006.1,6989.5,7006.1,7006.1,6989.5,7006.1,1,7006.1,0,0,NA,"Click To Continue","Continue Button",3,"object-60","Task Instructions",NA,"SUPPRF81177"
"3",1708116271718,"16/02/2024 20:44:31",1708116271718,0,"16/02/2024 20:44:31",166635,2,"task-v7r7",NA,35239820,10410854,NA,"complete",NA,"65cfac1bb0283ebbe7149ea7","computer","Desktop or Laptop","Windows 10","Chrome 121.0.0.0","1366x768","1366x641",NA,NA,0,"Task Introduction and Instructions (re-introduce video and audio) (Clone)",3,"CDBEAFJGIH","Passed AC2","","Spreadsheet1",1,"Task Instructions","Screen 2","ce2tc8",2,"continue","",19009.6999999881,19000.9,19009.6999999881,19009.6999999881,19000.9,19009.6999999881,1,19009.6999999881,0,0,NA,"Click To Continue","Continue Button",3,"object-59","Task Instructions",NA,"SUPPRF81177"
"4",1708116285748,"16/02/2024 20:44:45",1708116285748,0,"16/02/2024 20:44:45",166635,2,"task-v7r7",NA,35239820,10410854,NA,"complete",NA,"65cfac1bb0283ebbe7149ea7","computer","Desktop or Laptop","Windows 10","Chrome 121.0.0.0","1366x768","1366x641",NA,NA,0,"Task Introduction and Instructions (re-introduce video and audio) (Clone)",3,"CDBEAFJGIH","Passed AC2","","Spreadsheet1",1,"Task Instructions","Screen 3","1qtc8v",3,"continue","",14038.6,14032.5,14038.6,14038.6,14032.5,14038.6,1,14038.6,0,0,NA,"Click To Continue","Continue Button",2,"object-2983","Task Instructions",NA,"SUPPRF81177"
"5",1708116315612,"16/02/2024 20:45:15",1708116315612,0,"16/02/2024 20:45:15",166635,2,"task-v7r7",NA,35239820,10410854,NA,"complete",NA,"65cfac1bb0283ebbe7149ea7","computer","Desktop or Laptop","Windows 10","Chrome 121.0.0.0","1366x768","1366x641",NA,NA,0,"Task Introduction and Instructions (re-introduce video and audio) (Clone)",3,"CDBEAFJGIH","Passed AC2","","Spreadsheet1",1,"Task Instructions","Screen 12","1a4vu2",4,"continue","",29870.7000000238,29860.1,29870.7000000238,29870.7000000238,29860.1,29870.7000000238,1,29870.7000000238,0,0,NA,"Click To Continue","Continue Button",2,"object-2466","Task Instructions",NA,"SUPPRF81177"
"6",1708116333178,"16/02/2024 20:45:33",1708116333178,0,"16/02/2024 20:45:33",166635,2,"task-v7r7",NA,35239820,10410854,NA,"complete",NA,"65cfac1bb0283ebbe7149ea7","computer","Desktop or Laptop","Windows 10","Chrome 121.0.0.0","1366x768","1366x641",NA,NA,0,"Task Introduction and Instructions (re-introduce video and audio) (Clone)",3,"CDBEAFJGIH","Passed AC2","","Spreadsheet1",1,"Task Instructions","Screen 13","q9vwda",5,"continue","",17576.1000000238,17566.4,17576.1000000238,17576.1000000238,17566.4,17576.1000000238,1,17576.1000000238,0,0,NA,"Click To Continue","Continue Button",2,"object-2989","Task Instructions",NA,"SUPPRF81177"
"7",1708116339411,"16/02/2024 20:45:39",1708116339411,0,"16/02/2024 20:45:39",166635,2,"task-v7r7",NA,35239820,10410854,NA,"complete",NA,"65cfac1bb0283ebbe7149ea7","computer","Desktop or Laptop","Windows 10","Chrome 121.0.0.0","1366x768","1366x641",NA,NA,0,"Task Introduction and Instructions (re-introduce video and audio) (Clone)",3,"CDBEAFJGIH","Passed AC2","","Spreadsheet1",1,"Task Instructions","Screen 11","oyulb7",6,"continue","",6242.60000000001,6226.70000000001,6242.60000000001,6242.60000000001,6226.70000000001,6242.60000000001,1,6242.60000000001,0,0,NA,"Click To Continue","Continue Button",2,"object-52","Task Instructions",NA,"SUPPRF81177"
"8",1708116346067,"16/02/2024 20:45:46",1708116346067,0,"16/02/2024 20:45:46",166635,2,"task-v7r7",NA,35239820,10410854,NA,"complete",NA,"65cfac1bb0283ebbe7149ea7","computer","Desktop or Laptop","Windows 10","Chrome 121.0.0.0","1366x768","1366x641",NA,NA,0,"Task Introduction and Instructions (re-introduce video and audio) (Clone)",3,"CDBEAFJGIH","Passed AC2","","Spreadsheet1",1,"Task Instructions","Screen 4","spepx9",7,"continue","",6672.59999998807,6656.29999999999,6672.59999998807,6672.59999998807,6656.29999999999,6672.59999998807,1,6672.59999998807,0,0,NA,"Click To Continue","Continue Button",2,"object-9","Task Instructions",NA,"SUPPRF81177"
"9",1708116353432,"16/02/2024 20:45:53",1708116353432,0,"16/02/2024 20:45:53",166635,2,"task-v7r7",NA,35239820,10410854,NA,"complete",NA,"65cfac1bb0283ebbe7149ea7","computer","Desktop or Laptop","Windows 10","Chrome 121.0.0.0","1366x768","1366x641",NA,NA,0,"Task Introduction and Instructions (re-introduce video and audio) (Clone)",3,"CDBEAFJGIH","Passed AC2","","Spreadsheet1",1,"Task Instructions","Screen 5","8nvnao",8,"continue","",7381.29999998808,7365.3,7381.29999998808,7381.29999998808,7365.3,7381.29999998808,1,7381.29999998808,0,0,NA,"Click To Continue","Continue Button",2,"object-44","Task Instructions",NA,"SUPPRF81177"
"10",1708116353452,"16/02/2024 20:45:53",1708116353452,0,"16/02/2024 20:45:53",166635,2,"task-v7r7",NA,35239820,10410854,NA,"complete",NA,"65cfac1bb0283ebbe7149ea7","computer","Desktop or Laptop","Windows 10","Chrome 121.0.0.0","1366x768","1366x641",NA,NA,0,"Task Introduction and Instructions (re-introduce video and audio) (Clone)",3,"CDBEAFJGIH","Passed AC2","","Spreadsheet1",NA,"","","",NA,"5","END",NA,NA,NA,NA,NA,NA,0,NA,NA,NA,NA,"","",NA,"","",NA,"SUPPRF81177"
"1",1708118294172,"16/02/2024 21:18:14",1708089494172,-8,"16/02/2024 05:18:14",166635,2,"task-v7r7",NA,35240593,10411297,NA,"complete",NA,"65cfcdd84190d5f435c1e579","computer","Desktop or Laptop","Windows 10","Chrome 121.0.0.0","1920x1080","1920x919",NA,NA,0,"Task Introduction and Instructions (re-introduce video and audio) (Clone)",3,"DECFBGAHJI","Passed AC2","","Spreadsheet1",NA,"","","",NA,"5","BEGIN",NA,NA,NA,NA,NA,NA,0,NA,NA,NA,NA,"","",NA,"","",NA,"SUPPRF57917"
"2",1708118298868,"16/02/2024 21:18:18",1708089498868,-8,"16/02/2024 05:18:18",166635,2,"task-v7r7",NA,35240593,10411297,NA,"complete",NA,"65cfcdd84190d5f435c1e579","computer","Desktop or Laptop","Windows 10","Chrome 121.0.0.0","1920x1080","1920x919",NA,NA,0,"Task Introduction and Instructions (re-introduce video and audio) (Clone)",3,"DECFBGAHJI","Passed AC2","","Spreadsheet1",1,"Task Instructions","Screen 1","anr7sn",1,"continue","",3854.8,3849.4,3854.8,3854.8,3849.4,3854.8,1,3854.8,0,0,NA,"Click To Continue","Continue Button",3,"object-60","Task Instructions",NA,"SUPPRF57917"
"3",1708118308852,"16/02/2024 21:18:28",1708089508852,-8,"16/02/2024 05:18:28",166635,2,"task-v7r7",NA,35240593,10411297,NA,"complete",NA,"65cfcdd84190d5f435c1e579","computer","Desktop or Laptop","Windows 10","Chrome 121.0.0.0","1920x1080","1920x919",NA,NA,0,"Task Introduction and Instructions (re-introduce video and audio) (Clone)",3,"DECFBGAHJI","Passed AC2","","Spreadsheet1",1,"Task Instructions","Screen 2","ce2tc8",2,"continue","",9989.60000000019,9982.2,9989.60000000019,9989.60000000019,9982.2,9989.60000000019,1,9989.60000000019,0,0,NA,"Click To Continue","Continue Button",3,"object-59","Task Instructions",NA,"SUPPRF57917"
"4",1708118315032,"16/02/2024 21:18:35",1708089515032,-8,"16/02/2024 05:18:35",166635,2,"task-v7r7",NA,35240593,10411297,NA,"complete",NA,"65cfcdd84190d5f435c1e579","computer","Desktop or Laptop","Windows 10","Chrome 121.0.0.0","1920x1080","1920x919",NA,NA,0,"Task Introduction and Instructions (re-introduce video and audio) (Clone)",3,"DECFBGAHJI","Passed AC2","","Spreadsheet1",1,"Task Instructions","Screen 3","1qtc8v",3,"continue","",6187.2,6182.7,6187.2,6187.2,6182.7,6187.2,1,6187.2,0,0,NA,"Click To Continue","Continue Button",2,"object-2983","Task Instructions",NA,"SUPPRF57917"
"5",1708118322915,"16/02/2024 21:18:42",1708089522915,-8,"16/02/2024 05:18:42",166635,2,"task-v7r7",NA,35240593,10411297,NA,"complete",NA,"65cfcdd84190d5f435c1e579","computer","Desktop or Laptop","Windows 10","Chrome 121.0.0.0","1920x1080","1920x919",NA,NA,0,"Task Introduction and Instructions (re-introduce video and audio) (Clone)",3,"DECFBGAHJI","Passed AC2","","Spreadsheet1",1,"Task Instructions","Screen 12","1a4vu2",4,"continue","",7888.40000000014,7882.4,7888.40000000014,7888.40000000014,7882.4,7888.40000000014,1,7888.40000000014,0,0,NA,"Click To Continue","Continue Button",2,"object-2466","Task Instructions",NA,"SUPPRF57917"
