"Event.Index","UTC.Timestamp","UTC.Date.and.Time","Local.Timestamp","Local.Timezone","Local.Date.and.Time","Experiment.ID","Experiment.Version","Tree.Node.Key","Repeat.Key","Schedule.ID","Participant.Private.ID","Participant.Starting.Group","Participant.Status","Participant.Completion.Code","Participant.External.Session.ID","Participant.Device.Type","Participant.Device","Participant.OS","Participant.Browser","Participant.Monitor.Size","Participant.Viewport.Size","Checkpoint","Room.ID","Room.Order","Task.Name","Task.Version","order.ot79","branch.g31k","branch.5gtn","Spreadsheet","Trial.Number","Display","Screen","Screen.ID","Screen.Counter","Response.Type","Response","Onset.Time","Clock.Time","Reaction.Time","Absolute.Onset.Time","Absolute.Clock.Time","Absolute.Reaction.Time","Correct","Response.Onset","Response.Duration","Proportion","Tag","Component.Name","Object.Name","Object.Number","Object.ID","Spreadsheet..display","Manipulation..Spreadsheet","Random_ID"
"1",1708106530465,"16/02/2024 18:02:10",1708077730465,-8,"16/02/2024 02:02:10",166635,2,"task-gjqt",NA,35235417,10409670,NA,"complete",NA,"65cf9bdd7baa2a49168d0052","computer","Desktop or Laptop","Windows 10","Chrome 121.0.0.0","1600x900","1600x765",NA,NA,0,"BIQ (Charlotte)",3,"BCADJEIFHG","Passed AC2","","Spreadsheet1",NA,"","","",NA,"5","BEGIN",NA,NA,NA,NA,NA,NA,0,NA,NA,NA,NA,"","",NA,"","",NA,"SUPPRF14876"
"2",1708106629003,"16/02/2024 18:03:49",1708077829003,-8,"16/02/2024 02:03:49",166635,2,"task-gjqt",NA,35235417,10409670,NA,"complete",NA,"65cf9bdd7baa2a49168d0052","computer","Desktop or Laptop","Windows 10","Chrome 121.0.0.0","1600x900","1600x765",NA,NA,0,"BIQ (Charlotte)",3,"BCADJEIFHG","Passed AC2","","Spreadsheet1",1,"BIQ","Screen 1","9dh6eq",1,"continue","",98545.786,98520.786,98545.786,98545.786,98520.786,98545.786,1,98545.786,0,0,NA,"Click To Continue","Continue Button",23,"object-48","BIQ",NA,"SUPPRF14876"
"3",1708106629009,"16/02/2024 18:03:49",1708077829009,-8,"16/02/2024 02:03:49",166635,2,"task-gjqt",NA,35235417,10409670,NA,"complete",NA,"65cf9bdd7baa2a49168d0052","computer","Desktop or Laptop","Windows 10","Chrome 121.0.0.0","1600x900","1600x765",NA,NA,0,"BIQ (Charlotte)",3,"BCADJEIFHG","Passed AC2","","Spreadsheet1",1,"BIQ","Screen 1","9dh6eq",1,"response","4",50172.086,98520.786,98545.786,50172.086,98520.786,98545.786,1,50172.086,48373.7,0,NA,"Rating Scale","Rating Scale",3,"object-5","BIQ",NA,"SUPPRF14876"
"4",1708106629011,"16/02/2024 18:03:49",1708077829011,-8,"16/02/2024 02:03:49",166635,2,"task-gjqt",NA,35235417,10409670,NA,"complete",NA,"65cf9bdd7baa2a49168d0052","computer","Desktop or Laptop","Windows 10","Chrome 121.0.0.0","1600x900","1600x765",NA,NA,0,"BIQ (Charlotte)",3,"BCADJEIFHG","Passed AC2","","Spreadsheet1",1,"BIQ","Screen 1","9dh6eq",1,"response","8",87002.086,98520.786,98545.786,87002.086,98520.786,98545.786,1,87002.086,11543.7,0,NA,"Rating Scale","Rating Scale",10,"object-18","BIQ",NA,"SUPPRF14876"
"5",1708106629011,"16/02/2024 18:03:49",1708077829011,-8,"16/02/2024 02:03:49",166635,2,"task-gjqt",NA,35235417,10409670,NA,"complete",NA,"65cf9bdd7baa2a49168d0052","computer","Desktop or Laptop","Windows 10","Chrome 121.0.0.0","1600x900","1600x765",NA,NA,0,"BIQ (Charlotte)",3,"BCADJEIFHG","Passed AC2","","Spreadsheet1",1,"BIQ","Screen 1","9dh6eq",1,"response","0",96921.786,98520.786,98545.786,96921.786,98520.786,98545.786,1,96921.786,1624,0,NA,"Rating Scale","Rating Scale",17,"object-80","BIQ",NA,"SUPPRF14876"
"6",1708106670783,"16/02/2024 18:04:30",1708077870783,-8,"16/02/2024 02:04:30",166635,2,"task-gjqt",NA,35235417,10409670,NA,"complete",NA,"65cf9bdd7baa2a49168d0052","computer","Desktop or Laptop","Windows 10","Chrome 121.0.0.0","1600x900","1600x765",NA,NA,0,"BIQ (Charlotte)",3,"BCADJEIFHG","Passed AC2","","Spreadsheet1",1,"BIQ","Screen 2","o21mwi",2,"continue","",41826.4999999911,41802.6,41826.4999999911,41826.4999999911,41802.6,41826.4999999911,1,41826.4999999911,0,0,NA,"Click To Continue","Continue Button",22,"object-50","BIQ",NA,"SUPPRF14876"
"7",1708106670794,"16/02/2024 18:04:30",1708077870794,-8,"16/02/2024 02:04:30",166635,2,"task-gjqt",NA,35235417,10409670,NA,"complete",NA,"65cf9bdd7baa2a49168d0052","computer","Desktop or Laptop","Windows 10","Chrome 121.0.0.0","1600x900","1600x765",NA,NA,0,"BIQ (Charlotte)",3,"BCADJEIFHG","Passed AC2","","Spreadsheet1",1,"BIQ","Screen 2","o21mwi",2,"response","0",15366.9,41802.6,41827.6,15366.9,41802.6,41827.6,1,15366.9,26460.7,0,NA,"Rating Scale","Rating Scale",2,"object-259","BIQ",NA,"SUPPRF14876"
"8",1708106670796,"16/02/2024 18:04:30",1708077870796,-8,"16/02/2024 02:04:30",166635,2,"task-gjqt",NA,35235417,10409670,NA,"complete",NA,"65cf9bdd7baa2a49168d0052","computer","Desktop or Laptop","Windows 10","Chrome 121.0.0.0","1600x900","1600x765",NA,NA,0,"BIQ (Charlotte)",3,"BCADJEIFHG","Passed AC2","","Spreadsheet1",1,"BIQ","Screen 2","o21mwi",2,"response","3",24062.2,41802.6,41827.6,24062.2,41802.6,41827.6,1,24062.2,17765.4,0,NA,"Rating Scale","Rating Scale",9,"object-36","BIQ",NA,"SUPPRF14876"
"9",1708106670800,"16/02/2024 18:04:30",1708077870800,-8,"16/02/2024 02:04:30",166635,2,"task-gjqt",NA,35235417,10409670,NA,"complete",NA,"65cf9bdd7baa2a49168d0052","computer","Desktop or Laptop","Windows 10","Chrome 121.0.0.0","1600x900","1600x765",NA,NA,0,"BIQ (Charlotte)",3,"BCADJEIFHG","Passed AC2","","Spreadsheet1",1,"BIQ","Screen 2","o21mwi",2,"response","4",40928,41802.6,41827.6,40928,41802.6,41827.6,1,40928,899.600000000006,0,NA,"Rating Scale","Rating Scale",16,"object-86","BIQ",NA,"SUPPRF14876"
"10",1708106692805,"16/02/2024 18:04:52",1708077892805,-8,"16/02/2024 02:04:52",166635,2,"task-gjqt",NA,35235417,10409670,NA,"complete",NA,"65cf9bdd7baa2a49168d0052","computer","Desktop or Laptop","Windows 10","Chrome 121.0.0.0","1600x900","1600x765",NA,NA,0,"BIQ (Charlotte)",3,"BCADJEIFHG","Passed AC2","","Spreadsheet1",1,"BIQ","Screen 3","iz3the",3,"continue","",22046,22038.1,22046,22046,22038.1,22046,1,22046,0,0,NA,"Click To Continue","Continue Button",22,"object-73","BIQ",NA,"SUPPRF14876"
"11",1708106692813,"16/02/2024 18:04:52",1708077892813,-8,"16/02/2024 02:04:52",166635,2,"task-gjqt",NA,35235417,10409670,NA,"complete",NA,"65cf9bdd7baa2a49168d0052","computer","Desktop or Laptop","Windows 10","Chrome 121.0.0.0","1600x900","1600x765",NA,NA,0,"BIQ (Charlotte)",3,"BCADJEIFHG","Passed AC2","","Spreadsheet1",1,"BIQ","Screen 3","iz3the",3,"response","4",12543.3,22038.1,22054.299999997,12543.3,22038.1,22054.299999997,1,12543.3,9510.99999999703,0,NA,"Rating Scale","Rating Scale",2,"object-53","BIQ",NA,"SUPPRF14876"
"12",1708106692816,"16/02/2024 18:04:52",1708077892816,-8,"16/02/2024 02:04:52",166635,2,"task-gjqt",NA,35235417,10409670,NA,"complete",NA,"65cf9bdd7baa2a49168d0052","computer","Desktop or Laptop","Windows 10","Chrome 121.0.0.0","1600x900","1600x765",NA,NA,0,"BIQ (Charlotte)",3,"BCADJEIFHG","Passed AC2","","Spreadsheet1",1,"BIQ","Screen 3","iz3the",3,"response","2",17365.7,22038.1,22056.6999999881,17365.7,22038.1,22056.6999999881,1,17365.7,4690.99999998807,0,NA,"Rating Scale","Rating Scale",9,"object-60","BIQ",NA,"SUPPRF14876"
"13",1708106692821,"16/02/2024 18:04:52",1708077892821,-8,"16/02/2024 02:04:52",166635,2,"task-gjqt",NA,35235417,10409670,NA,"complete",NA,"65cf9bdd7baa2a49168d0052","computer","Desktop or Laptop","Windows 10","Chrome 121.0.0.0","1600x900","1600x765",NA,NA,0,"BIQ (Charlotte)",3,"BCADJEIFHG","Passed AC2","","Spreadsheet1",1,"BIQ","Screen 3","iz3the",3,"response","4",20189.2,22038.1,22060.8999999911,20189.2,22038.1,22060.8999999911,1,20189.2,1871.69999999105,0,NA,"Rating Scale","Rating Scale",16,"object-67","BIQ",NA,"SUPPRF14876"
"14",1708106692835,"16/02/2024 18:04:52",1708077892835,-8,"16/02/2024 02:04:52",166635,2,"task-gjqt",NA,35235417,10409670,NA,"complete",NA,"65cf9bdd7baa2a49168d0052","computer","Desktop or Laptop","Windows 10","Chrome 121.0.0.0","1600x900","1600x765",NA,NA,0,"BIQ (Charlotte)",3,"BCADJEIFHG","Passed AC2","","Spreadsheet1",NA,"","","",NA,"5","END",NA,NA,NA,NA,NA,NA,0,NA,NA,NA,NA,"","",NA,"","",NA,"SUPPRF14876"
"1",1708106267437,"16/02/2024 17:57:47",1708109867437,1,"16/02/2024 19:57:47",166635,2,"task-gjqt",NA,35235317,10409683,NA,"complete",NA,"65cf9c591522a6a49d012188","computer","Desktop or Laptop","Windows 10","Chrome 121.0.0.0","1280x720","1280x632",NA,NA,0,"BIQ (Charlotte)",3,"ABJCIDHEGF","Failed AC2","Passed AC1","Spreadsheet1",NA,"","","",NA,"5","BEGIN",NA,NA,NA,NA,NA,NA,0,NA,NA,NA,NA,"","",NA,"","",NA,"SUPPRF61541"
"2",1708106302400,"16/02/2024 17:58:22",1708109902400,1,"16/02/2024 19:58:22",166635,2,"task-gjqt",NA,35235317,10409683,NA,"complete",NA,"65cf9c591522a6a49d012188","computer","Desktop or Laptop","Windows 10","Chrome 121.0.0.0","1280x720","1280x632",NA,NA,0,"BIQ (Charlotte)",3,"ABJCIDHEGF","Failed AC2","Passed AC1","Spreadsheet1",1,"BIQ","Screen 1","9dh6eq",1,"continue","",34967.4,34950.9,34967.4,34967.4,34950.9,34967.4,1,34967.4,0,0,NA,"Click To Continue","Continue Button",23,"object-48","BIQ",NA,"SUPPRF61541"
"3",1708106302408,"16/02/2024 17:58:22",1708109902408,1,"16/02/2024 19:58:22",166635,2,"task-gjqt",NA,35235317,10409683,NA,"complete",NA,"65cf9c591522a6a49d012188","computer","Desktop or Laptop","Windows 10","Chrome 121.0.0.0","1280x720","1280x632",NA,NA,0,"BIQ (Charlotte)",3,"ABJCIDHEGF","Failed AC2","Passed AC1","Spreadsheet1",1,"BIQ","Screen 1","9dh6eq",1,"response","5",18399.9,34950.9,34967.4,18399.9,34950.9,34967.4,1,18399.9,16567.5,0,NA,"Rating Scale","Rating Scale",3,"object-5","BIQ",NA,"SUPPRF61541"
"4",1708106302410,"16/02/2024 17:58:22",1708109902410,1,"16/02/2024 19:58:22",166635,2,"task-gjqt",NA,35235317,10409683,NA,"complete",NA,"65cf9c591522a6a49d012188","computer","Desktop or Laptop","Windows 10","Chrome 121.0.0.0","1280x720","1280x632",NA,NA,0,"BIQ (Charlotte)",3,"ABJCIDHEGF","Failed AC2","Passed AC1","Spreadsheet1",1,"BIQ","Screen 1","9dh6eq",1,"response","8",28440.5,34950.9,34967.4,28440.5,34950.9,34967.4,1,28440.5,6526.9,0,NA,"Rating Scale","Rating Scale",10,"object-18","BIQ",NA,"SUPPRF61541"
"5",1708106302411,"16/02/2024 17:58:22",1708109902411,1,"16/02/2024 19:58:22",166635,2,"task-gjqt",NA,35235317,10409683,NA,"complete",NA,"65cf9c591522a6a49d012188","computer","Desktop or Laptop","Windows 10","Chrome 121.0.0.0","1280x720","1280x632",NA,NA,0,"BIQ (Charlotte)",3,"ABJCIDHEGF","Failed AC2","Passed AC1","Spreadsheet1",1,"BIQ","Screen 1","9dh6eq",1,"response","0",33985.1,34950.9,34967.4,33985.1,34950.9,34967.4,1,33985.1,982.300000000003,0,NA,"Rating Scale","Rating Scale",17,"object-80","BIQ",NA,"SUPPRF61541"
"6",1708106345653,"16/02/2024 17:59:05",1708109945653,1,"16/02/2024 19:59:05",166635,2,"task-gjqt",NA,35235317,10409683,NA,"complete",NA,"65cf9c591522a6a49d012188","computer","Desktop or Laptop","Windows 10","Chrome 121.0.0.0","1280x720","1280x632",NA,NA,0,"BIQ (Charlotte)",3,"ABJCIDHEGF","Failed AC2","Passed AC1","Spreadsheet1",1,"BIQ","Screen 2","o21mwi",2,"continue","",43292.8,43276.2,43292.8,43292.8,43276.2,43292.8,1,43292.8,0,0,NA,"Click To Continue","Continue Button",22,"object-50","BIQ",NA,"SUPPRF61541"
"7",1708106349500,"16/02/2024 17:59:09",1708109949500,1,"16/02/2024 19:59:09",166635,2,"task-gjqt",NA,35235317,10409683,NA,"complete",NA,"65cf9c591522a6a49d012188","computer","Desktop or Laptop","Windows 10","Chrome 121.0.0.0","1280x720","1280x632",NA,NA,0,"BIQ (Charlotte)",3,"ABJCIDHEGF","Failed AC2","Passed AC1","Spreadsheet1",1,"BIQ","Screen 2","o21mwi",2,"continue","",47141.2000000477,47139,47141.2000000477,47141.2000000477,47139,47141.2000000477,1,47141.2000000477,0,0,NA,"Click To Continue","Continue Button",22,"object-50","BIQ",NA,"SUPPRF61541"
"8",1708106349502,"16/02/2024 17:59:09",1708109949502,1,"16/02/2024 19:59:09",166635,2,"task-gjqt",NA,35235317,10409683,NA,"complete",NA,"65cf9c591522a6a49d012188","computer","Desktop or Laptop","Windows 10","Chrome 121.0.0.0","1280x720","1280x632",NA,NA,0,"BIQ (Charlotte)",3,"ABJCIDHEGF","Failed AC2","Passed AC1","Spreadsheet1",1,"BIQ","Screen 2","o21mwi",2,"response","7",12521.8,47139,47142.7000000477,12521.8,47139,47142.7000000477,1,12521.8,34620.9000000477,0,NA,"Rating Scale","Rating Scale",2,"object-259","BIQ",NA,"SUPPRF61541"
"9",1708106349503,"16/02/2024 17:59:09",1708109949503,1,"16/02/2024 19:59:09",166635,2,"task-gjqt",NA,35235317,10409683,NA,"complete",NA,"65cf9c591522a6a49d012188","computer","Desktop or Laptop","Windows 10","Chrome 121.0.0.0","1280x720","1280x632",NA,NA,0,"BIQ (Charlotte)",3,"ABJCIDHEGF","Failed AC2","Passed AC1","Spreadsheet1",1,"BIQ","Screen 2","o21mwi",2,"response","0",22928.7,47139,47144.5999999046,22928.7,47139,47144.5999999046,1,22928.7,24215.8999999046,0,NA,"Rating Scale","Rating Scale",9,"object-36","BIQ",NA,"SUPPRF61541"
"10",1708106349504,"16/02/2024 17:59:09",1708109949504,1,"16/02/2024 19:59:09",166635,2,"task-gjqt",NA,35235317,10409683,NA,"complete",NA,"65cf9c591522a6a49d012188","computer","Desktop or Laptop","Windows 10","Chrome 121.0.0.0","1280x720","1280x632",NA,NA,0,"BIQ (Charlotte)",3,"ABJCIDHEGF","Failed AC2","Passed AC1","Spreadsheet1",1,"BIQ","Screen 2","o21mwi",2,"response","8",44908.1,47139,47145.7000000477,44908.1,47139,47145.7000000477,1,44908.1,2237.60000004768,0,NA,"Rating Scale","Rating Scale",16,"object-86","BIQ",NA,"SUPPRF61541"
"11",1708106376077,"16/02/2024 17:59:36",1708109976077,1,"16/02/2024 19:59:36",166635,2,"task-gjqt",NA,35235317,10409683,NA,"complete",NA,"65cf9c591522a6a49d012188","computer","Desktop or Laptop","Windows 10","Chrome 121.0.0.0","1280x720","1280x632",NA,NA,0,"BIQ (Charlotte)",3,"ABJCIDHEGF","Failed AC2","Passed AC1","Spreadsheet1",1,"BIQ","Screen 3","iz3the",3,"continue","",26578.7999999523,26575.2,26578.7999999523,26578.7999999523,26575.2,26578.7999999523,1,26578.7999999523,0,0,NA,"Click To Continue","Continue Button",22,"object-73","BIQ",NA,"SUPPRF61541"
"12",1708106376085,"16/02/2024 17:59:36",1708109976085,1,"16/02/2024 19:59:36",166635,2,"task-gjqt",NA,35235317,10409683,NA,"complete",NA,"65cf9c591522a6a49d012188","computer","Desktop or Laptop","Windows 10","Chrome 121.0.0.0","1280x720","1280x632",NA,NA,0,"BIQ (Charlotte)",3,"ABJCIDHEGF","Failed AC2","Passed AC1","Spreadsheet1",1,"BIQ","Screen 3","iz3the",3,"response","0",12205.8,26575.2,26587.7999999523,12205.8,26575.2,26587.7999999523,1,12205.8,14381.9999999523,0,NA,"Rating Scale","Rating Scale",2,"object-53","BIQ",NA,"SUPPRF61541"
"13",1708106376087,"16/02/2024 17:59:36",1708109976087,1,"16/02/2024 19:59:36",166635,2,"task-gjqt",NA,35235317,10409683,NA,"complete",NA,"65cf9c591522a6a49d012188","computer","Desktop or Laptop","Windows 10","Chrome 121.0.0.0","1280x720","1280x632",NA,NA,0,"BIQ (Charlotte)",3,"ABJCIDHEGF","Failed AC2","Passed AC1","Spreadsheet1",1,"BIQ","Screen 3","iz3the",3,"response","0",20098.3,26575.2,26589.5999999046,20098.3,26575.2,26589.5999999046,1,20098.3,6491.29999990463,0,NA,"Rating Scale","Rating Scale",9,"object-60","BIQ",NA,"SUPPRF61541"
"14",1708106376089,"16/02/2024 17:59:36",1708109976089,1,"16/02/2024 19:59:36",166635,2,"task-gjqt",NA,35235317,10409683,NA,"complete",NA,"65cf9c591522a6a49d012188","computer","Desktop or Laptop","Windows 10","Chrome 121.0.0.0","1280x720","1280x632",NA,NA,0,"BIQ (Charlotte)",3,"ABJCIDHEGF","Failed AC2","Passed AC1","Spreadsheet1",1,"BIQ","Screen 3","iz3the",3,"response","6",25076.9,26575.2,26591.5,25076.9,26575.2,26591.5,1,25076.9,1514.60000000001,0,NA,"Rating Scale","Rating Scale",16,"object-67","BIQ",NA,"SUPPRF61541"
"15",1708106376107,"16/02/2024 17:59:36",1708109976107,1,"16/02/2024 19:59:36",166635,2,"task-gjqt",NA,35235317,10409683,NA,"complete",NA,"65cf9c591522a6a49d012188","computer","Desktop or Laptop","Windows 10","Chrome 121.0.0.0","1280x720","1280x632",NA,NA,0,"BIQ (Charlotte)",3,"ABJCIDHEGF","Failed AC2","Passed AC1","Spreadsheet1",NA,"","","",NA,"5","END",NA,NA,NA,NA,NA,NA,0,NA,NA,NA,NA,"","",NA,"","",NA,"SUPPRF61541"
"1",1708106030876,"16/02/2024 17:53:50",1708109630876,1,"16/02/2024 19:53:50",166635,2,"task-gjqt",NA,35235187,10409770,NA,"complete",NA,"65cf9ed3adac672e940732b5","computer","Desktop or Laptop","Linux x86_64","Chrome 121.0.0.0","1360x768","1366x620",NA,NA,0,"BIQ (Charlotte)",3,"CDBEAFJGIH","Passed AC2","","Spreadsheet1",NA,"","","",NA,"5","BEGIN",NA,NA,NA,NA,NA,NA,0,NA,NA,NA,NA,"","",NA,"","",NA,"SUPPRF16119"
"2",1708106072597,"16/02/2024 17:54:32",1708109672597,1,"16/02/2024 19:54:32",166635,2,"task-gjqt",NA,35235187,10409770,NA,"complete",NA,"65cf9ed3adac672e940732b5","computer","Desktop or Laptop","Linux x86_64","Chrome 121.0.0.0","1360x768","1366x620",NA,NA,0,"BIQ (Charlotte)",3,"CDBEAFJGIH","Passed AC2","","Spreadsheet1",1,"BIQ","Screen 1","9dh6eq",1,"continue","",41738.5000000015,41724.2,41738.5000000015,41738.5000000015,41724.2,41738.5000000015,1,41738.5000000015,0,0,NA,"Click To Continue","Continue Button",23,"object-48","BIQ",NA,"SUPPRF16119"
"3",1708106072600,"16/02/2024 17:54:32",1708109672600,1,"16/02/2024 19:54:32",166635,2,"task-gjqt",NA,35235187,10409770,NA,"complete",NA,"65cf9ed3adac672e940732b5","computer","Desktop or Laptop","Linux x86_64","Chrome 121.0.0.0","1360x768","1366x620",NA,NA,0,"BIQ (Charlotte)",3,"CDBEAFJGIH","Passed AC2","","Spreadsheet1",1,"BIQ","Screen 1","9dh6eq",1,"response","7",23993.3,41724.2,41740.8,23993.3,41724.2,41740.8,1,23993.3,17747.5,0,NA,"Rating Scale","Rating Scale",3,"object-5","BIQ",NA,"SUPPRF16119"
"4",1708106072601,"16/02/2024 17:54:32",1708109672601,1,"16/02/2024 19:54:32",166635,2,"task-gjqt",NA,35235187,10409770,NA,"complete",NA,"65cf9ed3adac672e940732b5","computer","Desktop or Laptop","Linux x86_64","Chrome 121.0.0.0","1360x768","1366x620",NA,NA,0,"BIQ (Charlotte)",3,"CDBEAFJGIH","Passed AC2","","Spreadsheet1",1,"BIQ","Screen 1","9dh6eq",1,"response","7",33224.2,41724.2,41740.8,33224.2,41724.2,41740.8,1,33224.2,8516.60000000001,0,NA,"Rating Scale","Rating Scale",10,"object-18","BIQ",NA,"SUPPRF16119"
"5",1708106072601,"16/02/2024 17:54:32",1708109672601,1,"16/02/2024 19:54:32",166635,2,"task-gjqt",NA,35235187,10409770,NA,"complete",NA,"65cf9ed3adac672e940732b5","computer","Desktop or Laptop","Linux x86_64","Chrome 121.0.0.0","1360x768","1366x620",NA,NA,0,"BIQ (Charlotte)",3,"CDBEAFJGIH","Passed AC2","","Spreadsheet1",1,"BIQ","Screen 1","9dh6eq",1,"response","1",38557.5,41724.2,41740.8,38557.5,41724.2,41740.8,1,38557.5,3183.30000000001,0,NA,"Rating Scale","Rating Scale",17,"object-80","BIQ",NA,"SUPPRF16119"
"6",1708106118398,"16/02/2024 17:55:18",1708109718398,1,"16/02/2024 19:55:18",166635,2,"task-gjqt",NA,35235187,10409770,NA,"complete",NA,"65cf9ed3adac672e940732b5","computer","Desktop or Laptop","Linux x86_64","Chrome 121.0.0.0","1360x768","1366x620",NA,NA,0,"BIQ (Charlotte)",3,"CDBEAFJGIH","Passed AC2","","Spreadsheet1",1,"BIQ","Screen 2","o21mwi",2,"continue","",45816.2,45799.2,45816.2,45816.2,45799.2,45816.2,1,45816.2,0,0,NA,"Click To Continue","Continue Button",22,"object-50","BIQ",NA,"SUPPRF16119"
"7",1708106118403,"16/02/2024 17:55:18",1708109718403,1,"16/02/2024 19:55:18",166635,2,"task-gjqt",NA,35235187,10409770,NA,"complete",NA,"65cf9ed3adac672e940732b5","computer","Desktop or Laptop","Linux x86_64","Chrome 121.0.0.0","1360x768","1366x620",NA,NA,0,"BIQ (Charlotte)",3,"CDBEAFJGIH","Passed AC2","","Spreadsheet1",1,"BIQ","Screen 2","o21mwi",2,"response","6",8119.1,45799.2,45821.100000006,8119.1,45799.2,45821.100000006,1,8119.1,37702.000000006,0,NA,"Rating Scale","Rating Scale",2,"object-259","BIQ",NA,"SUPPRF16119"
"8",1708106118404,"16/02/2024 17:55:18",1708109718404,1,"16/02/2024 19:55:18",166635,2,"task-gjqt",NA,35235187,10409770,NA,"complete",NA,"65cf9ed3adac672e940732b5","computer","Desktop or Laptop","Linux x86_64","Chrome 121.0.0.0","1360x768","1366x620",NA,NA,0,"BIQ (Charlotte)",3,"CDBEAFJGIH","Passed AC2","","Spreadsheet1",1,"BIQ","Screen 2","o21mwi",2,"response","1",28799.7,45799.2,45821.9,28799.7,45799.2,45821.9,1,28799.7,17022.2,0,NA,"Rating Scale","Rating Scale",9,"object-36","BIQ",NA,"SUPPRF16119"
"9",1708106118405,"16/02/2024 17:55:18",1708109718405,1,"16/02/2024 19:55:18",166635,2,"task-gjqt",NA,35235187,10409770,NA,"complete",NA,"65cf9ed3adac672e940732b5","computer","Desktop or Laptop","Linux x86_64","Chrome 121.0.0.0","1360x768","1366x620",NA,NA,0,"BIQ (Charlotte)",3,"CDBEAFJGIH","Passed AC2","","Spreadsheet1",1,"BIQ","Screen 2","o21mwi",2,"response","1",44500.3,45799.2,45821.9,44500.3,45799.2,45821.9,1,44500.3,1321.59999999999,0,NA,"Rating Scale","Rating Scale",16,"object-86","BIQ",NA,"SUPPRF16119"
"10",1708106135960,"16/02/2024 17:55:35",1708109735960,1,"16/02/2024 19:55:35",166635,2,"task-gjqt",NA,35235187,10409770,NA,"complete",NA,"65cf9ed3adac672e940732b5","computer","Desktop or Laptop","Linux x86_64","Chrome 121.0.0.0","1360x768","1366x620",NA,NA,0,"BIQ (Charlotte)",3,"CDBEAFJGIH","Passed AC2","","Spreadsheet1",1,"BIQ","Screen 3","iz3the",3,"continue","",17578.900000006,17567,17578.900000006,17578.900000006,17567,17578.900000006,1,17578.900000006,0,0,NA,"Click To Continue","Continue Button",22,"object-73","BIQ",NA,"SUPPRF16119"
"11",1708106135964,"16/02/2024 17:55:35",1708109735964,1,"16/02/2024 19:55:35",166635,2,"task-gjqt",NA,35235187,10409770,NA,"complete",NA,"65cf9ed3adac672e940732b5","computer","Desktop or Laptop","Linux x86_64","Chrome 121.0.0.0","1360x768","1366x620",NA,NA,0,"BIQ (Charlotte)",3,"CDBEAFJGIH","Passed AC2","","Spreadsheet1",1,"BIQ","Screen 3","iz3the",3,"response","1",6288,17567,17583.1000000015,6288,17567,17583.1000000015,1,6288,11295.1000000015,0,NA,"Rating Scale","Rating Scale",2,"object-53","BIQ",NA,"SUPPRF16119"
"12",1708106135965,"16/02/2024 17:55:35",1708109735965,1,"16/02/2024 19:55:35",166635,2,"task-gjqt",NA,35235187,10409770,NA,"complete",NA,"65cf9ed3adac672e940732b5","computer","Desktop or Laptop","Linux x86_64","Chrome 121.0.0.0","1360x768","1366x620",NA,NA,0,"BIQ (Charlotte)",3,"CDBEAFJGIH","Passed AC2","","Spreadsheet1",1,"BIQ","Screen 3","iz3the",3,"response","2",12854.2,17567,17583.7,12854.2,17567,17583.7,1,12854.2,4729.5,0,NA,"Rating Scale","Rating Scale",9,"object-60","BIQ",NA,"SUPPRF16119"
"13",1708106135966,"16/02/2024 17:55:35",1708109735966,1,"16/02/2024 19:55:35",166635,2,"task-gjqt",NA,35235187,10409770,NA,"complete",NA,"65cf9ed3adac672e940732b5","computer","Desktop or Laptop","Linux x86_64","Chrome 121.0.0.0","1360x768","1366x620",NA,NA,0,"BIQ (Charlotte)",3,"CDBEAFJGIH","Passed AC2","","Spreadsheet1",1,"BIQ","Screen 3","iz3the",3,"response","1",16604.6,17567,17583.7,16604.6,17567,17583.7,1,16604.6,979.099999999991,0,NA,"Rating Scale","Rating Scale",16,"object-67","BIQ",NA,"SUPPRF16119"
"14",1708106135974,"16/02/2024 17:55:35",1708109735974,1,"16/02/2024 19:55:35",166635,2,"task-gjqt",NA,35235187,10409770,NA,"complete",NA,"65cf9ed3adac672e940732b5","computer","Desktop or Laptop","Linux x86_64","Chrome 121.0.0.0","1360x768","1366x620",NA,NA,0,"BIQ (Charlotte)",3,"CDBEAFJGIH","Passed AC2","","Spreadsheet1",NA,"","","",NA,"5","END",NA,NA,NA,NA,NA,NA,0,NA,NA,NA,NA,"","",NA,"","",NA,"SUPPRF16119"
"1",1708106345120,"16/02/2024 17:59:05",1708106345120,0,"16/02/2024 17:59:05",166635,2,"task-gjqt",NA,35235365,10409801,NA,"complete",NA,"65cf9e5075ba348a6a36999c","computer","Desktop or Laptop","Windows 10","Chrome 121.0.0.0","1536x864","1536x747",NA,NA,0,"BIQ (Charlotte)",3,"DECFBGAHJI","Passed AC2","","Spreadsheet1",NA,"","","",NA,"5","BEGIN",NA,NA,NA,NA,NA,NA,0,NA,NA,NA,NA,"","",NA,"","",NA,"SUPPRF92604"
"2",1708106386790,"16/02/2024 17:59:46",1708106386790,0,"16/02/2024 17:59:46",166635,2,"task-gjqt",NA,35235365,10409801,NA,"complete",NA,"65cf9e5075ba348a6a36999c","computer","Desktop or Laptop","Windows 10","Chrome 121.0.0.0","1536x864","1536x747",NA,NA,0,"BIQ (Charlotte)",3,"DECFBGAHJI","Passed AC2","","Spreadsheet1",1,"BIQ","Screen 1","9dh6eq",1,"continue","",41681.1,41674.4,41681.1,41681.1,41674.4,41681.1,1,41681.1,0,0,NA,"Click To Continue","Continue Button",23,"object-48","BIQ",NA,"SUPPRF92604"
"3",1708106386792,"16/02/2024 17:59:46",1708106386792,0,"16/02/2024 17:59:46",166635,2,"task-gjqt",NA,35235365,10409801,NA,"complete",NA,"65cf9e5075ba348a6a36999c","computer","Desktop or Laptop","Windows 10","Chrome 121.0.0.0","1536x864","1536x747",NA,NA,0,"BIQ (Charlotte)",3,"DECFBGAHJI","Passed AC2","","Spreadsheet1",1,"BIQ","Screen 1","9dh6eq",1,"response","3",9757.3,41674.4,41681.1,9757.3,41674.4,41681.1,1,9757.3,31923.8,0,NA,"Rating Scale","Rating Scale",3,"object-5","BIQ",NA,"SUPPRF92604"
"4",1708106386792,"16/02/2024 17:59:46",1708106386792,0,"16/02/2024 17:59:46",166635,2,"task-gjqt",NA,35235365,10409801,NA,"complete",NA,"65cf9e5075ba348a6a36999c","computer","Desktop or Laptop","Windows 10","Chrome 121.0.0.0","1536x864","1536x747",NA,NA,0,"BIQ (Charlotte)",3,"DECFBGAHJI","Passed AC2","","Spreadsheet1",1,"BIQ","Screen 1","9dh6eq",1,"response","7",19680.9,41674.4,41681.1,19680.9,41674.4,41681.1,1,19680.9,22000.2,0,NA,"Rating Scale","Rating Scale",10,"object-18","BIQ",NA,"SUPPRF92604"
"5",1708106386792,"16/02/2024 17:59:46",1708106386792,0,"16/02/2024 17:59:46",166635,2,"task-gjqt",NA,35235365,10409801,NA,"complete",NA,"65cf9e5075ba348a6a36999c","computer","Desktop or Laptop","Windows 10","Chrome 121.0.0.0","1536x864","1536x747",NA,NA,0,"BIQ (Charlotte)",3,"DECFBGAHJI","Passed AC2","","Spreadsheet1",1,"BIQ","Screen 1","9dh6eq",1,"response","4",24785.3,41674.4,41681.1,24785.3,41674.4,41681.1,1,24785.3,16895.8,0,NA,"Rating Scale","Rating Scale",17,"object-80","BIQ",NA,"SUPPRF92604"
"6",1708106410161,"16/02/2024 18:00:10",1708106410161,0,"16/02/2024 18:00:10",166635,2,"task-gjqt",NA,35235365,10409801,NA,"complete",NA,"65cf9e5075ba348a6a36999c","computer","Desktop or Laptop","Windows 10","Chrome 121.0.0.0","1536x864","1536x747",NA,NA,0,"BIQ (Charlotte)",3,"DECFBGAHJI","Passed AC2","","Spreadsheet1",1,"BIQ","Screen 2","o21mwi",2,"continue","",23378,23375.5,23378,23378,23375.5,23378,1,23378,0,0,NA,"Click To Continue","Continue Button",22,"object-50","BIQ",NA,"SUPPRF92604"
"7",1708106410162,"16/02/2024 18:00:10",1708106410162,0,"16/02/2024 18:00:10",166635,2,"task-gjqt",NA,35235365,10409801,NA,"complete",NA,"65cf9e5075ba348a6a36999c","computer","Desktop or Laptop","Windows 10","Chrome 121.0.0.0","1536x864","1536x747",NA,NA,0,"BIQ (Charlotte)",3,"DECFBGAHJI","Passed AC2","","Spreadsheet1",1,"BIQ","Screen 2","o21mwi",2,"response","8",4562.89999999999,23375.5,23379.6,4562.89999999999,23375.5,23379.6,1,4562.89999999999,18816.7,0,NA,"Rating Scale","Rating Scale",2,"object-259","BIQ",NA,"SUPPRF92604"
"8",1708106410163,"16/02/2024 18:00:10",1708106410163,0,"16/02/2024 18:00:10",166635,2,"task-gjqt",NA,35235365,10409801,NA,"complete",NA,"65cf9e5075ba348a6a36999c","computer","Desktop or Laptop","Windows 10","Chrome 121.0.0.0","1536x864","1536x747",NA,NA,0,"BIQ (Charlotte)",3,"DECFBGAHJI","Passed AC2","","Spreadsheet1",1,"BIQ","Screen 2","o21mwi",2,"response","3",10208.8,23375.5,23379.9000000001,10208.8,23375.5,23379.9000000001,1,10208.8,13171.1000000001,0,NA,"Rating Scale","Rating Scale",9,"object-36","BIQ",NA,"SUPPRF92604"
"9",1708106410163,"16/02/2024 18:00:10",1708106410163,0,"16/02/2024 18:00:10",166635,2,"task-gjqt",NA,35235365,10409801,NA,"complete",NA,"65cf9e5075ba348a6a36999c","computer","Desktop or Laptop","Windows 10","Chrome 121.0.0.0","1536x864","1536x747",NA,NA,0,"BIQ (Charlotte)",3,"DECFBGAHJI","Passed AC2","","Spreadsheet1",1,"BIQ","Screen 2","o21mwi",2,"response","0",13750.4,23375.5,23380.1,13750.4,23375.5,23380.1,1,13750.4,9629.70000000003,0,NA,"Rating Scale","Rating Scale",16,"object-86","BIQ",NA,"SUPPRF92604"
"10",1708106426955,"16/02/2024 18:00:26",1708106426955,0,"16/02/2024 18:00:26",166635,2,"task-gjqt",NA,35235365,10409801,NA,"complete",NA,"65cf9e5075ba348a6a36999c","computer","Desktop or Laptop","Windows 10","Chrome 121.0.0.0","1536x864","1536x747",NA,NA,0,"BIQ (Charlotte)",3,"DECFBGAHJI","Passed AC2","","Spreadsheet1",1,"BIQ","Screen 3","iz3the",3,"continue","",16796.8000000001,16792.1,16796.8000000001,16796.8000000001,16792.1,16796.8000000001,1,16796.8000000001,0,0,NA,"Click To Continue","Continue Button",22,"object-73","BIQ",NA,"SUPPRF92604"
"11",1708106426958,"16/02/2024 18:00:26",1708106426958,0,"16/02/2024 18:00:26",166635,2,"task-gjqt",NA,35235365,10409801,NA,"complete",NA,"65cf9e5075ba348a6a36999c","computer","Desktop or Laptop","Windows 10","Chrome 121.0.0.0","1536x864","1536x747",NA,NA,0,"BIQ (Charlotte)",3,"DECFBGAHJI","Passed AC2","","Spreadsheet1",1,"BIQ","Screen 3","iz3the",3,"response","0",2347.3,16792.1,16798.8,2347.3,16792.1,16798.8,1,2347.3,14451.5,0,NA,"Rating Scale","Rating Scale",2,"object-53","BIQ",NA,"SUPPRF92604"
"12",1708106426959,"16/02/2024 18:00:26",1708106426959,0,"16/02/2024 18:00:26",166635,2,"task-gjqt",NA,35235365,10409801,NA,"complete",NA,"65cf9e5075ba348a6a36999c","computer","Desktop or Laptop","Windows 10","Chrome 121.0.0.0","1536x864","1536x747",NA,NA,0,"BIQ (Charlotte)",3,"DECFBGAHJI","Passed AC2","","Spreadsheet1",1,"BIQ","Screen 3","iz3the",3,"response","1",10139.4,16792.1,16798.8,10139.4,16792.1,16798.8,1,10139.4,6659.39999999999,0,NA,"Rating Scale","Rating Scale",9,"object-60","BIQ",NA,"SUPPRF92604"
"13",1708106426959,"16/02/2024 18:00:26",1708106426959,0,"16/02/2024 18:00:26",166635,2,"task-gjqt",NA,35235365,10409801,NA,"complete",NA,"65cf9e5075ba348a6a36999c","computer","Desktop or Laptop","Windows 10","Chrome 121.0.0.0","1536x864","1536x747",NA,NA,0,"BIQ (Charlotte)",3,"DECFBGAHJI","Passed AC2","","Spreadsheet1",1,"BIQ","Screen 3","iz3the",3,"response","2",14646.2,16792.1,16798.8,14646.2,16792.1,16798.8,1,14646.2,2152.59999999999,0,NA,"Rating Scale","Rating Scale",16,"object-67","BIQ",NA,"SUPPRF92604"
"14",1708106426962,"16/02/2024 18:00:26",1708106426962,0,"16/02/2024 18:00:26",166635,2,"task-gjqt",NA,35235365,10409801,NA,"complete",NA,"65cf9e5075ba348a6a36999c","computer","Desktop or Laptop","Windows 10","Chrome 121.0.0.0","1536x864","1536x747",NA,NA,0,"BIQ (Charlotte)",3,"DECFBGAHJI","Passed AC2","","Spreadsheet1",NA,"","","",NA,"5","END",NA,NA,NA,NA,NA,NA,0,NA,NA,NA,NA,"","",NA,"","",NA,"SUPPRF92604"
"1",1708108575649,"16/02/2024 18:36:15",1708108575649,0,"16/02/2024 18:36:15",166635,2,"task-gjqt",NA,35236342,10410189,NA,"complete",NA,"65cfaa77aa458aef6c66cf21","computer","Desktop or Laptop","Windows 10","Chrome 121.0.0.0","1536x864","1536x695",NA,NA,0,"BIQ (Charlotte)",3,"FGEHDICJBA","Passed AC2","","Spreadsheet1",NA,"","","",NA,"5","BEGIN",NA,NA,NA,NA,NA,NA,0,NA,NA,NA,NA,"","",NA,"","",NA,"SUPPRF90660"
"2",1708108681698,"16/02/2024 18:38:01",1708108681698,0,"16/02/2024 18:38:01",166635,2,"task-gjqt",NA,35236342,10410189,NA,"complete",NA,"65cfaa77aa458aef6c66cf21","computer","Desktop or Laptop","Windows 10","Chrome 121.0.0.0","1536x864","1536x695",NA,NA,0,"BIQ (Charlotte)",3,"FGEHDICJBA","Passed AC2","","Spreadsheet1",1,"BIQ","Screen 1","9dh6eq",1,"continue","",106069.24,106053.34,106069.24,106069.24,106053.34,106069.24,1,106069.24,0,0,NA,"Click To Continue","Continue Button",23,"object-48","BIQ",NA,"SUPPRF90660"
"3",1708108681701,"16/02/2024 18:38:01",1708108681701,0,"16/02/2024 18:38:01",166635,2,"task-gjqt",NA,35236342,10410189,NA,"complete",NA,"65cfaa77aa458aef6c66cf21","computer","Desktop or Laptop","Windows 10","Chrome 121.0.0.0","1536x864","1536x695",NA,NA,0,"BIQ (Charlotte)",3,"FGEHDICJBA","Passed AC2","","Spreadsheet1",1,"BIQ","Screen 1","9dh6eq",1,"response","5",99203.84,106053.34,106070.04,99203.84,106053.34,106070.04,1,99203.84,6866.20000000001,0,NA,"Rating Scale","Rating Scale",3,"object-5","BIQ",NA,"SUPPRF90660"
"4",1708108681701,"16/02/2024 18:38:01",1708108681701,0,"16/02/2024 18:38:01",166635,2,"task-gjqt",NA,35236342,10410189,NA,"complete",NA,"65cfaa77aa458aef6c66cf21","computer","Desktop or Laptop","Windows 10","Chrome 121.0.0.0","1536x864","1536x695",NA,NA,0,"BIQ (Charlotte)",3,"FGEHDICJBA","Passed AC2","","Spreadsheet1",1,"BIQ","Screen 1","9dh6eq",1,"response","6",95887.84,106053.34,106070.04,95887.84,106053.34,106070.04,1,95887.84,10182.2,0,NA,"Rating Scale","Rating Scale",10,"object-18","BIQ",NA,"SUPPRF90660"
"5",1708108681701,"16/02/2024 18:38:01",1708108681701,0,"16/02/2024 18:38:01",166635,2,"task-gjqt",NA,35236342,10410189,NA,"complete",NA,"65cfaa77aa458aef6c66cf21","computer","Desktop or Laptop","Windows 10","Chrome 121.0.0.0","1536x864","1536x695",NA,NA,0,"BIQ (Charlotte)",3,"FGEHDICJBA","Passed AC2","","Spreadsheet1",1,"BIQ","Screen 1","9dh6eq",1,"response","2",102503.64,106053.34,106070.04,102503.64,106053.34,106070.04,1,102503.64,3566.40000000002,0,NA,"Rating Scale","Rating Scale",17,"object-80","BIQ",NA,"SUPPRF90660"
"6",1708108707136,"16/02/2024 18:38:27",1708108707136,0,"16/02/2024 18:38:27",166635,2,"task-gjqt",NA,35236342,10410189,NA,"complete",NA,"65cfaa77aa458aef6c66cf21","computer","Desktop or Laptop","Windows 10","Chrome 121.0.0.0","1536x864","1536x695",NA,NA,0,"BIQ (Charlotte)",3,"FGEHDICJBA","Passed AC2","","Spreadsheet1",1,"BIQ","Screen 2","o21mwi",2,"continue","",25454.499999994,25446.5,25454.499999994,25454.499999994,25446.5,25454.499999994,1,25454.499999994,0,0,NA,"Click To Continue","Continue Button",22,"object-50","BIQ",NA,"SUPPRF90660"
"7",1708108707141,"16/02/2024 18:38:27",1708108707141,0,"16/02/2024 18:38:27",166635,2,"task-gjqt",NA,35236342,10410189,NA,"complete",NA,"65cfaa77aa458aef6c66cf21","computer","Desktop or Laptop","Windows 10","Chrome 121.0.0.0","1536x864","1536x695",NA,NA,0,"BIQ (Charlotte)",3,"FGEHDICJBA","Passed AC2","","Spreadsheet1",1,"BIQ","Screen 2","o21mwi",2,"response","7",2699.29999999999,25446.5,25459.499999994,2699.29999999999,25446.5,25459.499999994,1,2699.29999999999,22760.199999994,0,NA,"Rating Scale","Rating Scale",2,"object-259","BIQ",NA,"SUPPRF90660"
"8",1708108707142,"16/02/2024 18:38:27",1708108707142,0,"16/02/2024 18:38:27",166635,2,"task-gjqt",NA,35236342,10410189,NA,"complete",NA,"65cfaa77aa458aef6c66cf21","computer","Desktop or Laptop","Windows 10","Chrome 121.0.0.0","1536x864","1536x695",NA,NA,0,"BIQ (Charlotte)",3,"FGEHDICJBA","Passed AC2","","Spreadsheet1",1,"BIQ","Screen 2","o21mwi",2,"response","2",7465.59999999999,25446.5,25460.4,7465.59999999999,25446.5,25460.4,1,7465.59999999999,17994.8,0,NA,"Rating Scale","Rating Scale",9,"object-36","BIQ",NA,"SUPPRF90660"
"9",1708108707143,"16/02/2024 18:38:27",1708108707143,0,"16/02/2024 18:38:27",166635,2,"task-gjqt",NA,35236342,10410189,NA,"complete",NA,"65cfaa77aa458aef6c66cf21","computer","Desktop or Laptop","Windows 10","Chrome 121.0.0.0","1536x864","1536x695",NA,NA,0,"BIQ (Charlotte)",3,"FGEHDICJBA","Passed AC2","","Spreadsheet1",1,"BIQ","Screen 2","o21mwi",2,"response","1",9915.29999999999,25446.5,25461.2000000119,9915.29999999999,25446.5,25461.2000000119,1,9915.29999999999,15545.9000000119,0,NA,"Rating Scale","Rating Scale",16,"object-86","BIQ",NA,"SUPPRF90660"
"10",1708108720780,"16/02/2024 18:38:40",1708108720780,0,"16/02/2024 18:38:40",166635,2,"task-gjqt",NA,35236342,10410189,NA,"complete",NA,"65cfaa77aa458aef6c66cf21","computer","Desktop or Laptop","Windows 10","Chrome 121.0.0.0","1536x864","1536x695",NA,NA,0,"BIQ (Charlotte)",3,"FGEHDICJBA","Passed AC2","","Spreadsheet1",1,"BIQ","Screen 3","iz3the",3,"continue","",13651.499999994,13648.4,13651.499999994,13651.499999994,13648.4,13651.499999994,1,13651.499999994,0,0,NA,"Click To Continue","Continue Button",22,"object-73","BIQ",NA,"SUPPRF90660"
"11",1708108720785,"16/02/2024 18:38:40",1708108720785,0,"16/02/2024 18:38:40",166635,2,"task-gjqt",NA,35236342,10410189,NA,"complete",NA,"65cfaa77aa458aef6c66cf21","computer","Desktop or Laptop","Windows 10","Chrome 121.0.0.0","1536x864","1536x695",NA,NA,0,"BIQ (Charlotte)",3,"FGEHDICJBA","Passed AC2","","Spreadsheet1",1,"BIQ","Screen 3","iz3the",3,"response","2",2499.79999999999,13648.4,13656.499999994,2499.79999999999,13648.4,13656.499999994,1,2499.79999999999,11156.699999994,0,NA,"Rating Scale","Rating Scale",2,"object-53","BIQ",NA,"SUPPRF90660"
"12",1708108720785,"16/02/2024 18:38:40",1708108720785,0,"16/02/2024 18:38:40",166635,2,"task-gjqt",NA,35236342,10410189,NA,"complete",NA,"65cfaa77aa458aef6c66cf21","computer","Desktop or Laptop","Windows 10","Chrome 121.0.0.0","1536x864","1536x695",NA,NA,0,"BIQ (Charlotte)",3,"FGEHDICJBA","Passed AC2","","Spreadsheet1",1,"BIQ","Screen 3","iz3the",3,"response","4",3899.69999999998,13648.4,13657.300000006,3899.69999999998,13648.4,13657.300000006,1,3899.69999999998,9757.60000000597,0,NA,"Rating Scale","Rating Scale",9,"object-60","BIQ",NA,"SUPPRF90660"
"13",1708108720786,"16/02/2024 18:38:40",1708108720786,0,"16/02/2024 18:38:40",166635,2,"task-gjqt",NA,35236342,10410189,NA,"complete",NA,"65cfaa77aa458aef6c66cf21","computer","Desktop or Laptop","Windows 10","Chrome 121.0.0.0","1536x864","1536x695",NA,NA,0,"BIQ (Charlotte)",3,"FGEHDICJBA","Passed AC2","","Spreadsheet1",1,"BIQ","Screen 3","iz3the",3,"response","2",5982.69999999998,13648.4,13657.800000006,5982.69999999998,13648.4,13657.800000006,1,5982.69999999998,7675.10000000597,0,NA,"Rating Scale","Rating Scale",16,"object-67","BIQ",NA,"SUPPRF90660"
"14",1708108720791,"16/02/2024 18:38:40",1708108720791,0,"16/02/2024 18:38:40",166635,2,"task-gjqt",NA,35236342,10410189,NA,"complete",NA,"65cfaa77aa458aef6c66cf21","computer","Desktop or Laptop","Windows 10","Chrome 121.0.0.0","1536x864","1536x695",NA,NA,0,"BIQ (Charlotte)",3,"FGEHDICJBA","Passed AC2","","Spreadsheet1",NA,"","","",NA,"5","END",NA,NA,NA,NA,NA,NA,0,NA,NA,NA,NA,"","",NA,"","",NA,"SUPPRF90660"
"1",1708109546206,"16/02/2024 18:52:26",1708109546206,0,"16/02/2024 18:52:26",166635,2,"task-gjqt",NA,35236714,10410271,NA,"complete",NA,"65cfadaf101939b09af728d0","computer","Desktop or Laptop","Windows 10","Chrome 121.0.0.0","1536x864","1536x738",NA,NA,0,"BIQ (Charlotte)",3,"HIGJFAEBDC","Passed AC2","","Spreadsheet1",NA,"","","",NA,"5","BEGIN",NA,NA,NA,NA,NA,NA,0,NA,NA,NA,NA,"","",NA,"","",NA,"SUPPRF21106"
"2",1708109574687,"16/02/2024 18:52:54",1708109574687,0,"16/02/2024 18:52:54",166635,2,"task-gjqt",NA,35236714,10410271,NA,"complete",NA,"65cfadaf101939b09af728d0","computer","Desktop or Laptop","Windows 10","Chrome 121.0.0.0","1536x864","1536x738",NA,NA,0,"BIQ (Charlotte)",3,"HIGJFAEBDC","Passed AC2","","Spreadsheet1",1,"BIQ","Screen 1","9dh6eq",1,"continue","",28503.1,28497.9,28503.1,28503.1,28497.9,28503.1,1,28503.1,0,0,NA,"Click To Continue","Continue Button",23,"object-48","BIQ",NA,"SUPPRF21106"
"3",1708109574692,"16/02/2024 18:52:54",1708109574692,0,"16/02/2024 18:52:54",166635,2,"task-gjqt",NA,35236714,10410271,NA,"complete",NA,"65cfadaf101939b09af728d0","computer","Desktop or Laptop","Windows 10","Chrome 121.0.0.0","1536x864","1536x738",NA,NA,0,"BIQ (Charlotte)",3,"HIGJFAEBDC","Passed AC2","","Spreadsheet1",1,"BIQ","Screen 1","9dh6eq",1,"response","6",13498,28497.9,28509.7000000089,13498,28497.9,28509.7000000089,1,13498,15011.7000000089,0,NA,"Rating Scale","Rating Scale",3,"object-5","BIQ",NA,"SUPPRF21106"
"4",1708109574693,"16/02/2024 18:52:54",1708109574693,0,"16/02/2024 18:52:54",166635,2,"task-gjqt",NA,35236714,10410271,NA,"complete",NA,"65cfadaf101939b09af728d0","computer","Desktop or Laptop","Windows 10","Chrome 121.0.0.0","1536x864","1536x738",NA,NA,0,"BIQ (Charlotte)",3,"HIGJFAEBDC","Passed AC2","","Spreadsheet1",1,"BIQ","Screen 1","9dh6eq",1,"response","8",22341.1,28497.9,28510.7000000089,22341.1,28497.9,28510.7000000089,1,22341.1,6169.60000000894,0,NA,"Rating Scale","Rating Scale",10,"object-18","BIQ",NA,"SUPPRF21106"
"5",1708109574693,"16/02/2024 18:52:54",1708109574693,0,"16/02/2024 18:52:54",166635,2,"task-gjqt",NA,35236714,10410271,NA,"complete",NA,"65cfadaf101939b09af728d0","computer","Desktop or Laptop","Windows 10","Chrome 121.0.0.0","1536x864","1536x738",NA,NA,0,"BIQ (Charlotte)",3,"HIGJFAEBDC","Passed AC2","","Spreadsheet1",1,"BIQ","Screen 1","9dh6eq",1,"response","0",27596.9,28497.9,28511.500000006,27596.9,28497.9,28511.500000006,1,27596.9,914.600000005961,0,NA,"Rating Scale","Rating Scale",17,"object-80","BIQ",NA,"SUPPRF21106"
"6",1708109595424,"16/02/2024 18:53:15",1708109595424,0,"16/02/2024 18:53:15",166635,2,"task-gjqt",NA,35236714,10410271,NA,"complete",NA,"65cfadaf101939b09af728d0","computer","Desktop or Laptop","Windows 10","Chrome 121.0.0.0","1536x864","1536x738",NA,NA,0,"BIQ (Charlotte)",3,"HIGJFAEBDC","Passed AC2","","Spreadsheet1",1,"BIQ","Screen 2","o21mwi",2,"continue","",20743.8000000089,20739.4,20743.8000000089,20743.8000000089,20739.4,20743.8000000089,1,20743.8000000089,0,0,NA,"Click To Continue","Continue Button",22,"object-50","BIQ",NA,"SUPPRF21106"
"7",1708109595429,"16/02/2024 18:53:15",1708109595429,0,"16/02/2024 18:53:15",166635,2,"task-gjqt",NA,35236714,10410271,NA,"complete",NA,"65cfadaf101939b09af728d0","computer","Desktop or Laptop","Windows 10","Chrome 121.0.0.0","1536x864","1536x738",NA,NA,0,"BIQ (Charlotte)",3,"HIGJFAEBDC","Passed AC2","","Spreadsheet1",1,"BIQ","Screen 2","o21mwi",2,"response","8",5873.2,20739.4,20749.100000006,5873.2,20739.4,20749.100000006,1,5873.2,14875.900000006,0,NA,"Rating Scale","Rating Scale",2,"object-259","BIQ",NA,"SUPPRF21106"
"8",1708109595430,"16/02/2024 18:53:15",1708109595430,0,"16/02/2024 18:53:15",166635,2,"task-gjqt",NA,35236714,10410271,NA,"complete",NA,"65cfadaf101939b09af728d0","computer","Desktop or Laptop","Windows 10","Chrome 121.0.0.0","1536x864","1536x738",NA,NA,0,"BIQ (Charlotte)",3,"HIGJFAEBDC","Passed AC2","","Spreadsheet1",1,"BIQ","Screen 2","o21mwi",2,"response","7",9777.6,20739.4,20750.3000000089,9777.6,20739.4,20750.3000000089,1,9777.6,10972.7000000089,0,NA,"Rating Scale","Rating Scale",9,"object-36","BIQ",NA,"SUPPRF21106"
"9",1708109595431,"16/02/2024 18:53:15",1708109595431,0,"16/02/2024 18:53:15",166635,2,"task-gjqt",NA,35236714,10410271,NA,"complete",NA,"65cfadaf101939b09af728d0","computer","Desktop or Laptop","Windows 10","Chrome 121.0.0.0","1536x864","1536x738",NA,NA,0,"BIQ (Charlotte)",3,"HIGJFAEBDC","Passed AC2","","Spreadsheet1",1,"BIQ","Screen 2","o21mwi",2,"response","0",15600.5,20739.4,20751.5000000119,15600.5,20739.4,20751.5000000119,1,15600.5,5151.00000001192,0,NA,"Rating Scale","Rating Scale",16,"object-86","BIQ",NA,"SUPPRF21106"
"10",1708109607229,"16/02/2024 18:53:27",1708109607229,0,"16/02/2024 18:53:27",166635,2,"task-gjqt",NA,35236714,10410271,NA,"complete",NA,"65cfadaf101939b09af728d0","computer","Desktop or Laptop","Windows 10","Chrome 121.0.0.0","1536x864","1536x738",NA,NA,0,"BIQ (Charlotte)",3,"HIGJFAEBDC","Passed AC2","","Spreadsheet1",1,"BIQ","Screen 3","iz3the",3,"continue","",11810.000000003,11796.5,11810.000000003,11810.000000003,11796.5,11810.000000003,1,11810.000000003,0,0,NA,"Click To Continue","Continue Button",22,"object-73","BIQ",NA,"SUPPRF21106"
"11",1708109607236,"16/02/2024 18:53:27",1708109607236,0,"16/02/2024 18:53:27",166635,2,"task-gjqt",NA,35236714,10410271,NA,"complete",NA,"65cfadaf101939b09af728d0","computer","Desktop or Laptop","Windows 10","Chrome 121.0.0.0","1536x864","1536x738",NA,NA,0,"BIQ (Charlotte)",3,"HIGJFAEBDC","Passed AC2","","Spreadsheet1",1,"BIQ","Screen 3","iz3the",3,"response","0",3770.9,11796.5,11813.2,3770.9,11796.5,11813.2,1,3770.9,8042.3,0,NA,"Rating Scale","Rating Scale",2,"object-53","BIQ",NA,"SUPPRF21106"
"12",1708109607237,"16/02/2024 18:53:27",1708109607237,0,"16/02/2024 18:53:27",166635,2,"task-gjqt",NA,35236714,10410271,NA,"complete",NA,"65cfadaf101939b09af728d0","computer","Desktop or Laptop","Windows 10","Chrome 121.0.0.0","1536x864","1536x738",NA,NA,0,"BIQ (Charlotte)",3,"HIGJFAEBDC","Passed AC2","","Spreadsheet1",1,"BIQ","Screen 3","iz3the",3,"response","0",6206.9,11796.5,11813.2,6206.9,11796.5,11813.2,1,6206.9,5606.3,0,NA,"Rating Scale","Rating Scale",9,"object-60","BIQ",NA,"SUPPRF21106"
"13",1708109607238,"16/02/2024 18:53:27",1708109607238,0,"16/02/2024 18:53:27",166635,2,"task-gjqt",NA,35236714,10410271,NA,"complete",NA,"65cfadaf101939b09af728d0","computer","Desktop or Laptop","Windows 10","Chrome 121.0.0.0","1536x864","1536x738",NA,NA,0,"BIQ (Charlotte)",3,"HIGJFAEBDC","Passed AC2","","Spreadsheet1",1,"BIQ","Screen 3","iz3the",3,"response","3",10495,11796.5,11813.2,10495,11796.5,11813.2,1,10495,1318.2,0,NA,"Rating Scale","Rating Scale",16,"object-67","BIQ",NA,"SUPPRF21106"
"14",1708109607242,"16/02/2024 18:53:27",1708109607242,0,"16/02/2024 18:53:27",166635,2,"task-gjqt",NA,35236714,10410271,NA,"complete",NA,"65cfadaf101939b09af728d0","computer","Desktop or Laptop","Windows 10","Chrome 121.0.0.0","1536x864","1536x738",NA,NA,0,"BIQ (Charlotte)",3,"HIGJFAEBDC","Passed AC2","","Spreadsheet1",NA,"","","",NA,"5","END",NA,NA,NA,NA,NA,NA,0,NA,NA,NA,NA,"","",NA,"","",NA,"SUPPRF21106"
"1",1708110390308,"16/02/2024 19:06:30",1708110390308,0,"16/02/2024 19:06:30",166635,2,"task-gjqt",NA,35237019,10410299,NA,"complete",NA,"65cfaf013bcd2ef77a27bccc","computer","Desktop or Laptop","Mac OS 10.15.7","Chrome 121.0.0.0","1512x982","1090x713",NA,NA,0,"BIQ (Charlotte)",3,"IJHAGBFCED","Passed AC2","","Spreadsheet1",NA,"","","",NA,"5","BEGIN",NA,NA,NA,NA,NA,NA,0,NA,NA,NA,NA,"","",NA,"","",NA,"SUPPRF80091"
"2",1708110422019,"16/02/2024 19:07:02",1708110422019,0,"16/02/2024 19:07:02",166635,2,"task-gjqt",NA,35237019,10410299,NA,"complete",NA,"65cfaf013bcd2ef77a27bccc","computer","Desktop or Laptop","Mac OS 10.15.7","Chrome 121.0.0.0","1512x982","1090x713",NA,NA,0,"BIQ (Charlotte)",3,"IJHAGBFCED","Passed AC2","","Spreadsheet1",1,"BIQ","Screen 1","9dh6eq",1,"continue","",31716.6,31708.2,31716.6,31716.6,31708.2,31716.6,1,31716.6,0,0,NA,"Click To Continue","Continue Button",23,"object-48","BIQ",NA,"SUPPRF80091"
"3",1708110422021,"16/02/2024 19:07:02",1708110422021,0,"16/02/2024 19:07:02",166635,2,"task-gjqt",NA,35237019,10410299,NA,"complete",NA,"65cfaf013bcd2ef77a27bccc","computer","Desktop or Laptop","Mac OS 10.15.7","Chrome 121.0.0.0","1512x982","1090x713",NA,NA,0,"BIQ (Charlotte)",3,"IJHAGBFCED","Passed AC2","","Spreadsheet1",1,"BIQ","Screen 1","9dh6eq",1,"response","6",10279.1,31708.2,31716.6,10279.1,31708.2,31716.6,1,10279.1,21437.5,0,NA,"Rating Scale","Rating Scale",3,"object-5","BIQ",NA,"SUPPRF80091"
"4",1708110422022,"16/02/2024 19:07:02",1708110422022,0,"16/02/2024 19:07:02",166635,2,"task-gjqt",NA,35237019,10410299,NA,"complete",NA,"65cfaf013bcd2ef77a27bccc","computer","Desktop or Laptop","Mac OS 10.15.7","Chrome 121.0.0.0","1512x982","1090x713",NA,NA,0,"BIQ (Charlotte)",3,"IJHAGBFCED","Passed AC2","","Spreadsheet1",1,"BIQ","Screen 1","9dh6eq",1,"response","8",24224.8,31708.2,31716.6,24224.8,31708.2,31716.6,1,24224.8,7491.8,0,NA,"Rating Scale","Rating Scale",10,"object-18","BIQ",NA,"SUPPRF80091"
"5",1708110422022,"16/02/2024 19:07:02",1708110422022,0,"16/02/2024 19:07:02",166635,2,"task-gjqt",NA,35237019,10410299,NA,"complete",NA,"65cfaf013bcd2ef77a27bccc","computer","Desktop or Laptop","Mac OS 10.15.7","Chrome 121.0.0.0","1512x982","1090x713",NA,NA,0,"BIQ (Charlotte)",3,"IJHAGBFCED","Passed AC2","","Spreadsheet1",1,"BIQ","Screen 1","9dh6eq",1,"response","1",29669.9,31708.2,31716.6,29669.9,31708.2,31716.6,1,29669.9,2046.7,0,NA,"Rating Scale","Rating Scale",17,"object-80","BIQ",NA,"SUPPRF80091"
"6",1708110442222,"16/02/2024 19:07:22",1708110442222,0,"16/02/2024 19:07:22",166635,2,"task-gjqt",NA,35237019,10410299,NA,"complete",NA,"65cfaf013bcd2ef77a27bccc","computer","Desktop or Laptop","Mac OS 10.15.7","Chrome 121.0.0.0","1512x982","1090x713",NA,NA,0,"BIQ (Charlotte)",3,"IJHAGBFCED","Passed AC2","","Spreadsheet1",1,"BIQ","Screen 2","o21mwi",2,"continue","",20216.399999997,20212.5,20216.399999997,20216.399999997,20212.5,20216.399999997,1,20216.399999997,0,0,NA,"Click To Continue","Continue Button",22,"object-50","BIQ",NA,"SUPPRF80091"
"7",1708110442225,"16/02/2024 19:07:22",1708110442225,0,"16/02/2024 19:07:22",166635,2,"task-gjqt",NA,35237019,10410299,NA,"complete",NA,"65cfaf013bcd2ef77a27bccc","computer","Desktop or Laptop","Mac OS 10.15.7","Chrome 121.0.0.0","1512x982","1090x713",NA,NA,0,"BIQ (Charlotte)",3,"IJHAGBFCED","Passed AC2","","Spreadsheet1",1,"BIQ","Screen 2","o21mwi",2,"response","8",10058.2,20212.5,20219.399999997,10058.2,20212.5,20219.399999997,1,10058.2,10161.199999997,0,NA,"Rating Scale","Rating Scale",2,"object-259","BIQ",NA,"SUPPRF80091"
"8",1708110442226,"16/02/2024 19:07:22",1708110442226,0,"16/02/2024 19:07:22",166635,2,"task-gjqt",NA,35237019,10410299,NA,"complete",NA,"65cfaf013bcd2ef77a27bccc","computer","Desktop or Laptop","Mac OS 10.15.7","Chrome 121.0.0.0","1512x982","1090x713",NA,NA,0,"BIQ (Charlotte)",3,"IJHAGBFCED","Passed AC2","","Spreadsheet1",1,"BIQ","Screen 2","o21mwi",2,"response","0",13220.6,20212.5,20219.899999997,13220.6,20212.5,20219.899999997,1,13220.6,6999.29999999702,0,NA,"Rating Scale","Rating Scale",9,"object-36","BIQ",NA,"SUPPRF80091"
"9",1708110442226,"16/02/2024 19:07:22",1708110442226,0,"16/02/2024 19:07:22",166635,2,"task-gjqt",NA,35237019,10410299,NA,"complete",NA,"65cfaf013bcd2ef77a27bccc","computer","Desktop or Laptop","Mac OS 10.15.7","Chrome 121.0.0.0","1512x982","1090x713",NA,NA,0,"BIQ (Charlotte)",3,"IJHAGBFCED","Passed AC2","","Spreadsheet1",1,"BIQ","Screen 2","o21mwi",2,"response","0",19187.4,20212.5,20220.300000003,19187.4,20212.5,20220.300000003,1,19187.4,1032.90000000298,0,NA,"Rating Scale","Rating Scale",16,"object-86","BIQ",NA,"SUPPRF80091"
"10",1708110458406,"16/02/2024 19:07:38",1708110458406,0,"16/02/2024 19:07:38",166635,2,"task-gjqt",NA,35237019,10410299,NA,"complete",NA,"65cfaf013bcd2ef77a27bccc","computer","Desktop or Laptop","Mac OS 10.15.7","Chrome 121.0.0.0","1512x982","1090x713",NA,NA,0,"BIQ (Charlotte)",3,"IJHAGBFCED","Passed AC2","","Spreadsheet1",1,"BIQ","Screen 3","iz3the",3,"continue","",16187.300000003,16183.2,16187.300000003,16187.300000003,16183.2,16187.300000003,1,16187.300000003,0,0,NA,"Click To Continue","Continue Button",22,"object-73","BIQ",NA,"SUPPRF80091"
"11",1708110458409,"16/02/2024 19:07:38",1708110458409,0,"16/02/2024 19:07:38",166635,2,"task-gjqt",NA,35237019,10410299,NA,"complete",NA,"65cfaf013bcd2ef77a27bccc","computer","Desktop or Laptop","Mac OS 10.15.7","Chrome 121.0.0.0","1512x982","1090x713",NA,NA,0,"BIQ (Charlotte)",3,"IJHAGBFCED","Passed AC2","","Spreadsheet1",1,"BIQ","Screen 3","iz3the",3,"response","0",4395.2,16183.2,16191.000000006,4395.2,16183.2,16191.000000006,1,4395.2,11795.800000006,0,NA,"Rating Scale","Rating Scale",2,"object-53","BIQ",NA,"SUPPRF80091"
"12",1708110458410,"16/02/2024 19:07:38",1708110458410,0,"16/02/2024 19:07:38",166635,2,"task-gjqt",NA,35237019,10410299,NA,"complete",NA,"65cfaf013bcd2ef77a27bccc","computer","Desktop or Laptop","Mac OS 10.15.7","Chrome 121.0.0.0","1512x982","1090x713",NA,NA,0,"BIQ (Charlotte)",3,"IJHAGBFCED","Passed AC2","","Spreadsheet1",1,"BIQ","Screen 3","iz3the",3,"response","0",6949.9,16183.2,16191.399999997,6949.9,16183.2,16191.399999997,1,6949.9,9241.49999999702,0,NA,"Rating Scale","Rating Scale",9,"object-60","BIQ",NA,"SUPPRF80091"
"13",1708110458410,"16/02/2024 19:07:38",1708110458410,0,"16/02/2024 19:07:38",166635,2,"task-gjqt",NA,35237019,10410299,NA,"complete",NA,"65cfaf013bcd2ef77a27bccc","computer","Desktop or Laptop","Mac OS 10.15.7","Chrome 121.0.0.0","1512x982","1090x713",NA,NA,0,"BIQ (Charlotte)",3,"IJHAGBFCED","Passed AC2","","Spreadsheet1",1,"BIQ","Screen 3","iz3the",3,"response","0",11699.6,16183.2,16191.7000000089,11699.6,16183.2,16191.7000000089,1,11699.6,4492.10000000894,0,NA,"Rating Scale","Rating Scale",16,"object-67","BIQ",NA,"SUPPRF80091"
"14",1708110458415,"16/02/2024 19:07:38",1708110458415,0,"16/02/2024 19:07:38",166635,2,"task-gjqt",NA,35237019,10410299,NA,"complete",NA,"65cfaf013bcd2ef77a27bccc","computer","Desktop or Laptop","Mac OS 10.15.7","Chrome 121.0.0.0","1512x982","1090x713",NA,NA,0,"BIQ (Charlotte)",3,"IJHAGBFCED","Passed AC2","","Spreadsheet1",NA,"","","",NA,"5","END",NA,NA,NA,NA,NA,NA,0,NA,NA,NA,NA,"","",NA,"","",NA,"SUPPRF80091"
"1",1708111169886,"16/02/2024 19:19:29",1708089569886,-6,"16/02/2024 07:19:29",166635,2,"task-gjqt",NA,35237261,10410377,NA,"complete",NA,"65cfb1f4bb345b2197aee9aa","computer","Desktop or Laptop","Mac OS 10.15.7","Chrome 114.0.0.0","1440x900","1440x789",NA,NA,0,"BIQ (Charlotte)",3,"ABJCIDHEGF","Passed AC2","","Spreadsheet1",NA,"","","",NA,"5","BEGIN",NA,NA,NA,NA,NA,NA,0,NA,NA,NA,NA,"","",NA,"","",NA,"SUPPRF07437"
"2",1708111225632,"16/02/2024 19:20:25",1708089625632,-6,"16/02/2024 07:20:25",166635,2,"task-gjqt",NA,35237261,10410377,NA,"complete",NA,"65cfb1f4bb345b2197aee9aa","computer","Desktop or Laptop","Mac OS 10.15.7","Chrome 114.0.0.0","1440x900","1440x789",NA,NA,0,"BIQ (Charlotte)",3,"ABJCIDHEGF","Passed AC2","","Spreadsheet1",1,"BIQ","Screen 1","9dh6eq",1,"continue","",55766.6370002861,55752.489,55766.6370002861,55766.6370002861,55752.489,55766.6370002861,1,55766.6370002861,0,0,NA,"Click To Continue","Continue Button",23,"object-48","BIQ",NA,"SUPPRF07437"
"3",1708111225635,"16/02/2024 19:20:25",1708089625635,-6,"16/02/2024 07:20:25",166635,2,"task-gjqt",NA,35237261,10410377,NA,"complete",NA,"65cfb1f4bb345b2197aee9aa","computer","Desktop or Laptop","Mac OS 10.15.7","Chrome 114.0.0.0","1440x900","1440x789",NA,NA,0,"BIQ (Charlotte)",3,"ABJCIDHEGF","Passed AC2","","Spreadsheet1",1,"BIQ","Screen 1","9dh6eq",1,"response","2",28568.609,55752.489,55769.155,28568.609,55752.489,55769.155,1,28568.609,27200.546,0,NA,"Rating Scale","Rating Scale",3,"object-5","BIQ",NA,"SUPPRF07437"
"4",1708111225636,"16/02/2024 19:20:25",1708089625636,-6,"16/02/2024 07:20:25",166635,2,"task-gjqt",NA,35237261,10410377,NA,"complete",NA,"65cfb1f4bb345b2197aee9aa","computer","Desktop or Laptop","Mac OS 10.15.7","Chrome 114.0.0.0","1440x900","1440x789",NA,NA,0,"BIQ (Charlotte)",3,"ABJCIDHEGF","Passed AC2","","Spreadsheet1",1,"BIQ","Screen 1","9dh6eq",1,"response","6",43918.773,55752.489,55769.155,43918.773,55752.489,55769.155,1,43918.773,11850.382,0,NA,"Rating Scale","Rating Scale",10,"object-18","BIQ",NA,"SUPPRF07437"
"5",1708111225636,"16/02/2024 19:20:25",1708089625636,-6,"16/02/2024 07:20:25",166635,2,"task-gjqt",NA,35237261,10410377,NA,"complete",NA,"65cfb1f4bb345b2197aee9aa","computer","Desktop or Laptop","Mac OS 10.15.7","Chrome 114.0.0.0","1440x900","1440x789",NA,NA,0,"BIQ (Charlotte)",3,"ABJCIDHEGF","Passed AC2","","Spreadsheet1",1,"BIQ","Screen 1","9dh6eq",1,"response","2",53385.917,55752.489,55769.155,53385.917,55752.489,55769.155,1,53385.917,2383.238,0,NA,"Rating Scale","Rating Scale",17,"object-80","BIQ",NA,"SUPPRF07437"
"6",1708111255976,"16/02/2024 19:20:55",1708089655976,-6,"16/02/2024 07:20:55",166635,2,"task-gjqt",NA,35237261,10410377,NA,"complete",NA,"65cfb1f4bb345b2197aee9aa","computer","Desktop or Laptop","Mac OS 10.15.7","Chrome 114.0.0.0","1440x900","1440x789",NA,NA,0,"BIQ (Charlotte)",3,"ABJCIDHEGF","Passed AC2","","Spreadsheet1",1,"BIQ","Screen 2","o21mwi",2,"continue","",30359.7480001907,30351.733,30359.7480001907,30359.7480001907,30351.733,30359.7480001907,1,30359.7480001907,0,0,NA,"Click To Continue","Continue Button",22,"object-50","BIQ",NA,"SUPPRF07437"
"7",1708111255979,"16/02/2024 19:20:55",1708089655979,-6,"16/02/2024 07:20:55",166635,2,"task-gjqt",NA,35237261,10410377,NA,"complete",NA,"65cfb1f4bb345b2197aee9aa","computer","Desktop or Laptop","Mac OS 10.15.7","Chrome 114.0.0.0","1440x900","1440x789",NA,NA,0,"BIQ (Charlotte)",3,"ABJCIDHEGF","Passed AC2","","Spreadsheet1",1,"BIQ","Screen 2","o21mwi",2,"response","7",8884.16299999999,30351.733,30363.0480003815,8884.16299999999,30351.733,30363.0480003815,1,8884.16299999999,21478.8850003815,0,NA,"Rating Scale","Rating Scale",2,"object-259","BIQ",NA,"SUPPRF07437"
"8",1708111255979,"16/02/2024 19:20:55",1708089655979,-6,"16/02/2024 07:20:55",166635,2,"task-gjqt",NA,35237261,10410377,NA,"complete",NA,"65cfb1f4bb345b2197aee9aa","computer","Desktop or Laptop","Mac OS 10.15.7","Chrome 114.0.0.0","1440x900","1440x789",NA,NA,0,"BIQ (Charlotte)",3,"ABJCIDHEGF","Passed AC2","","Spreadsheet1",1,"BIQ","Screen 2","o21mwi",2,"response","6",14433.941,30351.733,30363.448,14433.941,30351.733,30363.448,1,14433.941,15929.507,0,NA,"Rating Scale","Rating Scale",9,"object-36","BIQ",NA,"SUPPRF07437"
"9",1708111255980,"16/02/2024 19:20:55",1708089655980,-6,"16/02/2024 07:20:55",166635,2,"task-gjqt",NA,35237261,10410377,NA,"complete",NA,"65cfb1f4bb345b2197aee9aa","computer","Desktop or Laptop","Mac OS 10.15.7","Chrome 114.0.0.0","1440x900","1440x789",NA,NA,0,"BIQ (Charlotte)",3,"ABJCIDHEGF","Passed AC2","","Spreadsheet1",1,"BIQ","Screen 2","o21mwi",2,"response","4",29968.415,30351.733,30364.0480003815,29968.415,30351.733,30364.0480003815,1,29968.415,395.633000381466,0,NA,"Rating Scale","Rating Scale",16,"object-86","BIQ",NA,"SUPPRF07437"
"10",1708111278176,"16/02/2024 19:21:18",1708089678176,-6,"16/02/2024 07:21:18",166635,2,"task-gjqt",NA,35237261,10410377,NA,"complete",NA,"65cfb1f4bb345b2197aee9aa","computer","Desktop or Laptop","Mac OS 10.15.7","Chrome 114.0.0.0","1440x900","1440x789",NA,NA,0,"BIQ (Charlotte)",3,"ABJCIDHEGF","Passed AC2","","Spreadsheet1",1,"BIQ","Screen 3","iz3the",3,"continue","",22208.9150002861,22199.922,22208.9150002861,22208.9150002861,22199.922,22208.9150002861,1,22208.9150002861,0,0,NA,"Click To Continue","Continue Button",22,"object-73","BIQ",NA,"SUPPRF07437"
"11",1708111278180,"16/02/2024 19:21:18",1708089678180,-6,"16/02/2024 07:21:18",166635,2,"task-gjqt",NA,35237261,10410377,NA,"complete",NA,"65cfb1f4bb345b2197aee9aa","computer","Desktop or Laptop","Mac OS 10.15.7","Chrome 114.0.0.0","1440x900","1440x789",NA,NA,0,"BIQ (Charlotte)",3,"ABJCIDHEGF","Passed AC2","","Spreadsheet1",1,"BIQ","Screen 3","iz3the",3,"response","2",8582.98999999999,22199.922,22213.4150002861,8582.98999999999,22199.922,22213.4150002861,1,8582.98999999999,13630.4250002861,0,NA,"Rating Scale","Rating Scale",2,"object-53","BIQ",NA,"SUPPRF07437"
"12",1708111278181,"16/02/2024 19:21:18",1708089678181,-6,"16/02/2024 07:21:18",166635,2,"task-gjqt",NA,35237261,10410377,NA,"complete",NA,"65cfb1f4bb345b2197aee9aa","computer","Desktop or Laptop","Mac OS 10.15.7","Chrome 114.0.0.0","1440x900","1440x789",NA,NA,0,"BIQ (Charlotte)",3,"ABJCIDHEGF","Passed AC2","","Spreadsheet1",1,"BIQ","Screen 3","iz3the",3,"response","3",13916.92,22199.922,22213.9150002861,13916.92,22199.922,22213.9150002861,1,13916.92,8296.9950002861,0,NA,"Rating Scale","Rating Scale",9,"object-60","BIQ",NA,"SUPPRF07437"
"13",1708111278181,"16/02/2024 19:21:18",1708089678181,-6,"16/02/2024 07:21:18",166635,2,"task-gjqt",NA,35237261,10410377,NA,"complete",NA,"65cfb1f4bb345b2197aee9aa","computer","Desktop or Laptop","Mac OS 10.15.7","Chrome 114.0.0.0","1440x900","1440x789",NA,NA,0,"BIQ (Charlotte)",3,"ABJCIDHEGF","Passed AC2","","Spreadsheet1",1,"BIQ","Screen 3","iz3the",3,"response","5",21283.292,22199.922,22214.3150003815,21283.292,22199.922,22214.3150003815,1,21283.292,931.023000381465,0,NA,"Rating Scale","Rating Scale",16,"object-67","BIQ",NA,"SUPPRF07437"
"14",1708111278187,"16/02/2024 19:21:18",1708089678187,-6,"16/02/2024 07:21:18",166635,2,"task-gjqt",NA,35237261,10410377,NA,"complete",NA,"65cfb1f4bb345b2197aee9aa","computer","Desktop or Laptop","Mac OS 10.15.7","Chrome 114.0.0.0","1440x900","1440x789",NA,NA,0,"BIQ (Charlotte)",3,"ABJCIDHEGF","Passed AC2","","Spreadsheet1",NA,"","","",NA,"5","END",NA,NA,NA,NA,NA,NA,0,NA,NA,NA,NA,"","",NA,"","",NA,"SUPPRF07437"
"1",1708111458076,"16/02/2024 19:24:18",1708111458076,0,"16/02/2024 19:24:18",166635,2,"task-gjqt",NA,35237364,10410439,NA,"complete",NA,"65cfb4595ff43f82e95cb6b5","computer","Desktop or Laptop","Windows 10","Chrome 121.0.0.0","1280x720","1280x632",NA,NA,0,"BIQ (Charlotte)",3,"CDBEAFJGIH","Passed AC2","","Spreadsheet1",NA,"","","",NA,"5","BEGIN",NA,NA,NA,NA,NA,NA,0,NA,NA,NA,NA,"","",NA,"","",NA,"SUPPRF78069"
"2",1708111495374,"16/02/2024 19:24:55",1708111495374,0,"16/02/2024 19:24:55",166635,2,"task-gjqt",NA,35237364,10410439,NA,"complete",NA,"65cfb4595ff43f82e95cb6b5","computer","Desktop or Laptop","Windows 10","Chrome 121.0.0.0","1280x720","1280x632",NA,NA,0,"BIQ (Charlotte)",3,"CDBEAFJGIH","Passed AC2","","Spreadsheet1",1,"BIQ","Screen 1","9dh6eq",1,"continue","",37323.482,37306.582,37323.482,37323.482,37306.582,37323.482,1,37323.482,0,0,NA,"Click To Continue","Continue Button",23,"object-48","BIQ",NA,"SUPPRF78069"
"3",1708111495378,"16/02/2024 19:24:55",1708111495378,0,"16/02/2024 19:24:55",166635,2,"task-gjqt",NA,35237364,10410439,NA,"complete",NA,"65cfb4595ff43f82e95cb6b5","computer","Desktop or Laptop","Windows 10","Chrome 121.0.0.0","1280x720","1280x632",NA,NA,0,"BIQ (Charlotte)",3,"CDBEAFJGIH","Passed AC2","","Spreadsheet1",1,"BIQ","Screen 1","9dh6eq",1,"response","2",16378.382,37306.582,37323.482,16378.382,37306.582,37323.482,1,16378.382,20945.1,0,NA,"Rating Scale","Rating Scale",3,"object-5","BIQ",NA,"SUPPRF78069"
"4",1708111495378,"16/02/2024 19:24:55",1708111495378,0,"16/02/2024 19:24:55",166635,2,"task-gjqt",NA,35237364,10410439,NA,"complete",NA,"65cfb4595ff43f82e95cb6b5","computer","Desktop or Laptop","Windows 10","Chrome 121.0.0.0","1280x720","1280x632",NA,NA,0,"BIQ (Charlotte)",3,"CDBEAFJGIH","Passed AC2","","Spreadsheet1",1,"BIQ","Screen 1","9dh6eq",1,"response","8",24076.382,37306.582,37323.482,24076.382,37306.582,37323.482,1,24076.382,13247.1,0,NA,"Rating Scale","Rating Scale",10,"object-18","BIQ",NA,"SUPPRF78069"
"5",1708111495379,"16/02/2024 19:24:55",1708111495379,0,"16/02/2024 19:24:55",166635,2,"task-gjqt",NA,35237364,10410439,NA,"complete",NA,"65cfb4595ff43f82e95cb6b5","computer","Desktop or Laptop","Windows 10","Chrome 121.0.0.0","1280x720","1280x632",NA,NA,0,"BIQ (Charlotte)",3,"CDBEAFJGIH","Passed AC2","","Spreadsheet1",1,"BIQ","Screen 1","9dh6eq",1,"response","0",36556.382,37306.582,37323.482,36556.382,37306.582,37323.482,1,36556.382,767.099999999999,0,NA,"Rating Scale","Rating Scale",17,"object-80","BIQ",NA,"SUPPRF78069"
"6",1708111507250,"16/02/2024 19:25:07",1708111507250,0,"16/02/2024 19:25:07",166635,2,"task-gjqt",NA,35237364,10410439,NA,"complete",NA,"65cfb4595ff43f82e95cb6b5","computer","Desktop or Laptop","Windows 10","Chrome 121.0.0.0","1280x720","1280x632",NA,NA,0,"BIQ (Charlotte)",3,"CDBEAFJGIH","Passed AC2","","Spreadsheet1",1,"BIQ","Screen 2","o21mwi",2,"continue","",11898.2000000007,11896.7,11898.2000000007,11898.2000000007,11896.7,11898.2000000007,1,11898.2000000007,0,0,NA,"Click To Continue","Continue Button",22,"object-50","BIQ",NA,"SUPPRF78069"
"7",1708111507253,"16/02/2024 19:25:07",1708111507253,0,"16/02/2024 19:25:07",166635,2,"task-gjqt",NA,35237364,10410439,NA,"complete",NA,"65cfb4595ff43f82e95cb6b5","computer","Desktop or Laptop","Windows 10","Chrome 121.0.0.0","1280x720","1280x632",NA,NA,0,"BIQ (Charlotte)",3,"CDBEAFJGIH","Passed AC2","","Spreadsheet1",1,"BIQ","Screen 2","o21mwi",2,"response","8",3448.7,11896.7,11901.6000000002,3448.7,11896.7,11901.6000000002,1,3448.7,8452.90000000018,0,NA,"Rating Scale","Rating Scale",2,"object-259","BIQ",NA,"SUPPRF78069"
"8",1708111507254,"16/02/2024 19:25:07",1708111507254,0,"16/02/2024 19:25:07",166635,2,"task-gjqt",NA,35237364,10410439,NA,"complete",NA,"65cfb4595ff43f82e95cb6b5","computer","Desktop or Laptop","Windows 10","Chrome 121.0.0.0","1280x720","1280x632",NA,NA,0,"BIQ (Charlotte)",3,"CDBEAFJGIH","Passed AC2","","Spreadsheet1",1,"BIQ","Screen 2","o21mwi",2,"response","0",5681.4,11896.7,11902.3000000004,5681.4,11896.7,11902.3000000004,1,5681.4,6220.90000000037,0,NA,"Rating Scale","Rating Scale",9,"object-36","BIQ",NA,"SUPPRF78069"
"9",1708111507254,"16/02/2024 19:25:07",1708111507254,0,"16/02/2024 19:25:07",166635,2,"task-gjqt",NA,35237364,10410439,NA,"complete",NA,"65cfb4595ff43f82e95cb6b5","computer","Desktop or Laptop","Windows 10","Chrome 121.0.0.0","1280x720","1280x632",NA,NA,0,"BIQ (Charlotte)",3,"CDBEAFJGIH","Passed AC2","","Spreadsheet1",1,"BIQ","Screen 2","o21mwi",2,"response","0",11080.4,11896.7,11903.1000000002,11080.4,11896.7,11903.1000000002,1,11080.4,822.700000000186,0,NA,"Rating Scale","Rating Scale",16,"object-86","BIQ",NA,"SUPPRF78069"
"10",1708111513818,"16/02/2024 19:25:13",1708111513818,0,"16/02/2024 19:25:13",166635,2,"task-gjqt",NA,35237364,10410439,NA,"complete",NA,"65cfb4595ff43f82e95cb6b5","computer","Desktop or Laptop","Windows 10","Chrome 121.0.0.0","1280x720","1280x632",NA,NA,0,"BIQ (Charlotte)",3,"CDBEAFJGIH","Passed AC2","","Spreadsheet1",1,"BIQ","Screen 3","iz3the",3,"continue","",6569.80000000056,6565.7,6569.80000000056,6569.80000000056,6565.7,6569.80000000056,1,6569.80000000056,0,0,NA,"Click To Continue","Continue Button",22,"object-73","BIQ",NA,"SUPPRF78069"
"11",1708111513820,"16/02/2024 19:25:13",1708111513820,0,"16/02/2024 19:25:13",166635,2,"task-gjqt",NA,35237364,10410439,NA,"complete",NA,"65cfb4595ff43f82e95cb6b5","computer","Desktop or Laptop","Windows 10","Chrome 121.0.0.0","1280x720","1280x632",NA,NA,0,"BIQ (Charlotte)",3,"CDBEAFJGIH","Passed AC2","","Spreadsheet1",1,"BIQ","Screen 3","iz3the",3,"response","0",3398.8,6565.7,6571.7,3398.8,6565.7,6571.7,1,3398.8,3172.9,0,NA,"Rating Scale","Rating Scale",2,"object-53","BIQ",NA,"SUPPRF78069"
"12",1708111513821,"16/02/2024 19:25:13",1708111513821,0,"16/02/2024 19:25:13",166635,2,"task-gjqt",NA,35237364,10410439,NA,"complete",NA,"65cfb4595ff43f82e95cb6b5","computer","Desktop or Laptop","Windows 10","Chrome 121.0.0.0","1280x720","1280x632",NA,NA,0,"BIQ (Charlotte)",3,"CDBEAFJGIH","Passed AC2","","Spreadsheet1",1,"BIQ","Screen 3","iz3the",3,"response","0",4581.8,6565.7,6572.90000000018,4581.8,6565.7,6572.90000000018,1,4581.8,1991.10000000019,0,NA,"Rating Scale","Rating Scale",9,"object-60","BIQ",NA,"SUPPRF78069"
"13",1708111513821,"16/02/2024 19:25:13",1708111513821,0,"16/02/2024 19:25:13",166635,2,"task-gjqt",NA,35237364,10410439,NA,"complete",NA,"65cfb4595ff43f82e95cb6b5","computer","Desktop or Laptop","Windows 10","Chrome 121.0.0.0","1280x720","1280x632",NA,NA,0,"BIQ (Charlotte)",3,"CDBEAFJGIH","Passed AC2","","Spreadsheet1",1,"BIQ","Screen 3","iz3the",3,"response","0",5464.89999999999,6565.7,6573.40000000018,5464.89999999999,6565.7,6573.40000000018,1,5464.89999999999,1108.50000000019,0,NA,"Rating Scale","Rating Scale",16,"object-67","BIQ",NA,"SUPPRF78069"
"14",1708111513828,"16/02/2024 19:25:13",1708111513828,0,"16/02/2024 19:25:13",166635,2,"task-gjqt",NA,35237364,10410439,NA,"complete",NA,"65cfb4595ff43f82e95cb6b5","computer","Desktop or Laptop","Windows 10","Chrome 121.0.0.0","1280x720","1280x632",NA,NA,0,"BIQ (Charlotte)",3,"CDBEAFJGIH","Passed AC2","","Spreadsheet1",NA,"","","",NA,"5","END",NA,NA,NA,NA,NA,NA,0,NA,NA,NA,NA,"","",NA,"","",NA,"SUPPRF78069"
"1",1708111572883,"16/02/2024 19:26:12",1708115172883,1,"16/02/2024 21:26:12",166635,2,"task-gjqt",NA,35237400,10410440,NA,"complete",NA,"65cfb45ed03608ff7096d8f5","computer","Desktop or Laptop","Linux x86_64","Chrome 120.0.0.0","412x846","1113x1939",NA,NA,0,"BIQ (Charlotte)",3,"DECFBGAHJI","Passed AC2","","Spreadsheet1",NA,"","","",NA,"5","BEGIN",NA,NA,NA,NA,NA,NA,0,NA,NA,NA,NA,"","",NA,"","",NA,"SUPPRF04615"
"2",1708111664860,"16/02/2024 19:27:44",1708115264860,1,"16/02/2024 21:27:44",166635,2,"task-gjqt",NA,35237400,10410440,NA,"complete",NA,"65cfb45ed03608ff7096d8f5","computer","Desktop or Laptop","Linux x86_64","Chrome 120.0.0.0","412x846","1113x1939",NA,NA,0,"BIQ (Charlotte)",3,"DECFBGAHJI","Passed AC2","","Spreadsheet1",1,"BIQ","Screen 1","9dh6eq",1,"continue","",91996.694,91980.035,91996.694,91996.694,91980.035,91996.694,1,91996.694,0,0,NA,"Click To Continue","Continue Button",23,"object-48","BIQ",NA,"SUPPRF04615"
"3",1708111664878,"16/02/2024 19:27:44",1708115264878,1,"16/02/2024 21:27:44",166635,2,"task-gjqt",NA,35237400,10410440,NA,"complete",NA,"65cfb45ed03608ff7096d8f5","computer","Desktop or Laptop","Linux x86_64","Chrome 120.0.0.0","412x846","1113x1939",NA,NA,0,"BIQ (Charlotte)",3,"DECFBGAHJI","Passed AC2","","Spreadsheet1",1,"BIQ","Screen 1","9dh6eq",1,"response","7",26790.272,91980.035,91996.694,26790.272,91980.035,91996.694,1,26790.272,65206.422,0,NA,"Rating Scale","Rating Scale",3,"object-5","BIQ",NA,"SUPPRF04615"
"4",1708111664879,"16/02/2024 19:27:44",1708115264879,1,"16/02/2024 21:27:44",166635,2,"task-gjqt",NA,35237400,10410440,NA,"complete",NA,"65cfb45ed03608ff7096d8f5","computer","Desktop or Laptop","Linux x86_64","Chrome 120.0.0.0","412x846","1113x1939",NA,NA,0,"BIQ (Charlotte)",3,"DECFBGAHJI","Passed AC2","","Spreadsheet1",1,"BIQ","Screen 1","9dh6eq",1,"response","4",36048.405,91980.035,91996.694,36048.405,91980.035,91996.694,1,36048.405,55948.289,0,NA,"Rating Scale","Rating Scale",10,"object-18","BIQ",NA,"SUPPRF04615"
"5",1708111664880,"16/02/2024 19:27:44",1708115264880,1,"16/02/2024 21:27:44",166635,2,"task-gjqt",NA,35237400,10410440,NA,"complete",NA,"65cfb45ed03608ff7096d8f5","computer","Desktop or Laptop","Linux x86_64","Chrome 120.0.0.0","412x846","1113x1939",NA,NA,0,"BIQ (Charlotte)",3,"DECFBGAHJI","Passed AC2","","Spreadsheet1",1,"BIQ","Screen 1","9dh6eq",1,"response","2",45004.884,91980.035,91996.694,45004.884,91980.035,91996.694,1,45004.884,46991.81,0,NA,"Rating Scale","Rating Scale",17,"object-80","BIQ",NA,"SUPPRF04615"
"6",1708111716508,"16/02/2024 19:28:36",1708115316508,1,"16/02/2024 21:28:36",166635,2,"task-gjqt",NA,35237400,10410440,NA,"complete",NA,"65cfb45ed03608ff7096d8f5","computer","Desktop or Laptop","Linux x86_64","Chrome 120.0.0.0","412x846","1113x1939",NA,NA,0,"BIQ (Charlotte)",3,"DECFBGAHJI","Passed AC2","","Spreadsheet1",1,"BIQ","Screen 2","o21mwi",2,"continue","",51680.704,51669.556,51680.704,51680.704,51669.556,51680.704,1,51680.704,0,0,NA,"Click To Continue","Continue Button",22,"object-50","BIQ",NA,"SUPPRF04615"
"7",1708111716565,"16/02/2024 19:28:36",1708115316565,1,"16/02/2024 21:28:36",166635,2,"task-gjqt",NA,35237400,10410440,NA,"complete",NA,"65cfb45ed03608ff7096d8f5","computer","Desktop or Laptop","Linux x86_64","Chrome 120.0.0.0","412x846","1113x1939",NA,NA,0,"BIQ (Charlotte)",3,"DECFBGAHJI","Passed AC2","","Spreadsheet1",1,"BIQ","Screen 2","o21mwi",2,"response","5",7726.761,51669.556,51686.197,7726.761,51669.556,51686.197,1,7726.761,43959.436,0,NA,"Rating Scale","Rating Scale",2,"object-259","BIQ",NA,"SUPPRF04615"
"8",1708111716566,"16/02/2024 19:28:36",1708115316566,1,"16/02/2024 21:28:36",166635,2,"task-gjqt",NA,35237400,10410440,NA,"complete",NA,"65cfb45ed03608ff7096d8f5","computer","Desktop or Laptop","Linux x86_64","Chrome 120.0.0.0","412x846","1113x1939",NA,NA,0,"BIQ (Charlotte)",3,"DECFBGAHJI","Passed AC2","","Spreadsheet1",1,"BIQ","Screen 2","o21mwi",2,"response","4",41929.053,51669.556,51686.197,41929.053,51669.556,51686.197,1,41929.053,9757.14400000003,0,NA,"Rating Scale","Rating Scale",9,"object-36","BIQ",NA,"SUPPRF04615"
"9",1708111716567,"16/02/2024 19:28:36",1708115316567,1,"16/02/2024 21:28:36",166635,2,"task-gjqt",NA,35237400,10410440,NA,"complete",NA,"65cfb45ed03608ff7096d8f5","computer","Desktop or Laptop","Linux x86_64","Chrome 120.0.0.0","412x846","1113x1939",NA,NA,0,"BIQ (Charlotte)",3,"DECFBGAHJI","Passed AC2","","Spreadsheet1",1,"BIQ","Screen 2","o21mwi",2,"response","5",51016.443,51669.556,51686.197,51016.443,51669.556,51686.197,1,51016.443,669.754000000015,0,NA,"Rating Scale","Rating Scale",16,"object-86","BIQ",NA,"SUPPRF04615"
"10",1708111734739,"16/02/2024 19:28:54",1708115334739,1,"16/02/2024 21:28:54",166635,2,"task-gjqt",NA,35237400,10410440,NA,"complete",NA,"65cfb45ed03608ff7096d8f5","computer","Desktop or Laptop","Linux x86_64","Chrome 120.0.0.0","412x846","1113x1939",NA,NA,0,"BIQ (Charlotte)",3,"DECFBGAHJI","Passed AC2","","Spreadsheet1",1,"BIQ","Screen 3","iz3the",3,"continue","",18249.413,18232.749,18249.413,18249.413,18232.749,18249.413,1,18249.413,0,0,NA,"Click To Continue","Continue Button",22,"object-73","BIQ",NA,"SUPPRF04615"
"11",1708111734754,"16/02/2024 19:28:54",1708115334754,1,"16/02/2024 21:28:54",166635,2,"task-gjqt",NA,35237400,10410440,NA,"complete",NA,"65cfb45ed03608ff7096d8f5","computer","Desktop or Laptop","Linux x86_64","Chrome 120.0.0.0","412x846","1113x1939",NA,NA,0,"BIQ (Charlotte)",3,"DECFBGAHJI","Passed AC2","","Spreadsheet1",1,"BIQ","Screen 3","iz3the",3,"response","4",5045.37099999998,18232.749,18249.413,5045.37099999998,18232.749,18249.413,1,5045.37099999998,13204.042,0,NA,"Rating Scale","Rating Scale",2,"object-53","BIQ",NA,"SUPPRF04615"
"12",1708111734756,"16/02/2024 19:28:54",1708115334756,1,"16/02/2024 21:28:54",166635,2,"task-gjqt",NA,35237400,10410440,NA,"complete",NA,"65cfb45ed03608ff7096d8f5","computer","Desktop or Laptop","Linux x86_64","Chrome 120.0.0.0","412x846","1113x1939",NA,NA,0,"BIQ (Charlotte)",3,"DECFBGAHJI","Passed AC2","","Spreadsheet1",1,"BIQ","Screen 3","iz3the",3,"response","6",12537.825,18232.749,18249.413,12537.825,18232.749,18249.413,1,12537.825,5711.58799999999,0,NA,"Rating Scale","Rating Scale",9,"object-60","BIQ",NA,"SUPPRF04615"
"13",1708111734757,"16/02/2024 19:28:54",1708115334757,1,"16/02/2024 21:28:54",166635,2,"task-gjqt",NA,35237400,10410440,NA,"complete",NA,"65cfb45ed03608ff7096d8f5","computer","Desktop or Laptop","Linux x86_64","Chrome 120.0.0.0","412x846","1113x1939",NA,NA,0,"BIQ (Charlotte)",3,"DECFBGAHJI","Passed AC2","","Spreadsheet1",1,"BIQ","Screen 3","iz3the",3,"response","5",17436.811,18232.749,18249.413,17436.811,18232.749,18249.413,1,17436.811,812.601999999984,0,NA,"Rating Scale","Rating Scale",16,"object-67","BIQ",NA,"SUPPRF04615"
"14",1708111734775,"16/02/2024 19:28:54",1708115334775,1,"16/02/2024 21:28:54",166635,2,"task-gjqt",NA,35237400,10410440,NA,"complete",NA,"65cfb45ed03608ff7096d8f5","computer","Desktop or Laptop","Linux x86_64","Chrome 120.0.0.0","412x846","1113x1939",NA,NA,0,"BIQ (Charlotte)",3,"DECFBGAHJI","Passed AC2","","Spreadsheet1",NA,"","","",NA,"5","END",NA,NA,NA,NA,NA,NA,0,NA,NA,NA,NA,"","",NA,"","",NA,"SUPPRF04615"
"1",1708111509649,"16/02/2024 19:25:09",1708111509649,0,"16/02/2024 19:25:09",166635,2,"task-gjqt",NA,35237382,10410473,NA,"complete",NA,"65cfb5f8f1264ee93bd8ff8d","computer","Desktop or Laptop","Mac OS 10.15.7","Chrome 108.0.0.0","1440x900","1440x821",NA,NA,0,"BIQ (Charlotte)",3,"EFDGCHBIAJ","Passed AC2","","Spreadsheet1",NA,"","","",NA,"5","BEGIN",NA,NA,NA,NA,NA,NA,0,NA,NA,NA,NA,"","",NA,"","",NA,"SUPPRF24224"
"2",1708111542353,"16/02/2024 19:25:42",1708111542353,0,"16/02/2024 19:25:42",166635,2,"task-gjqt",NA,35237382,10410473,NA,"complete",NA,"65cfb5f8f1264ee93bd8ff8d","computer","Desktop or Laptop","Mac OS 10.15.7","Chrome 108.0.0.0","1440x900","1440x821",NA,NA,0,"BIQ (Charlotte)",3,"EFDGCHBIAJ","Passed AC2","","Spreadsheet1",1,"BIQ","Screen 1","9dh6eq",1,"continue","",32720.801,32704.09,32720.801,32720.801,32704.09,32720.801,1,32720.801,0,0,NA,"Click To Continue","Continue Button",23,"object-48","BIQ",NA,"SUPPRF24224"
"3",1708111542355,"16/02/2024 19:25:42",1708111542355,0,"16/02/2024 19:25:42",166635,2,"task-gjqt",NA,35237382,10410473,NA,"complete",NA,"65cfb5f8f1264ee93bd8ff8d","computer","Desktop or Laptop","Mac OS 10.15.7","Chrome 108.0.0.0","1440x900","1440x821",NA,NA,0,"BIQ (Charlotte)",3,"EFDGCHBIAJ","Passed AC2","","Spreadsheet1",1,"BIQ","Screen 1","9dh6eq",1,"response","4",12032.12,32704.09,32720.801,12032.12,32704.09,32720.801,1,12032.12,20688.681,0,NA,"Rating Scale","Rating Scale",3,"object-5","BIQ",NA,"SUPPRF24224"
"4",1708111542356,"16/02/2024 19:25:42",1708111542356,0,"16/02/2024 19:25:42",166635,2,"task-gjqt",NA,35237382,10410473,NA,"complete",NA,"65cfb5f8f1264ee93bd8ff8d","computer","Desktop or Laptop","Mac OS 10.15.7","Chrome 108.0.0.0","1440x900","1440x821",NA,NA,0,"BIQ (Charlotte)",3,"EFDGCHBIAJ","Passed AC2","","Spreadsheet1",1,"BIQ","Screen 1","9dh6eq",1,"response","6",19936.674,32704.09,32720.801,19936.674,32704.09,32720.801,1,19936.674,12784.127,0,NA,"Rating Scale","Rating Scale",10,"object-18","BIQ",NA,"SUPPRF24224"
"5",1708111542356,"16/02/2024 19:25:42",1708111542356,0,"16/02/2024 19:25:42",166635,2,"task-gjqt",NA,35237382,10410473,NA,"complete",NA,"65cfb5f8f1264ee93bd8ff8d","computer","Desktop or Laptop","Mac OS 10.15.7","Chrome 108.0.0.0","1440x900","1440x821",NA,NA,0,"BIQ (Charlotte)",3,"EFDGCHBIAJ","Passed AC2","","Spreadsheet1",1,"BIQ","Screen 1","9dh6eq",1,"response","1",31467.476,32704.09,32720.801,31467.476,32704.09,32720.801,1,31467.476,1253.32499999999,0,NA,"Rating Scale","Rating Scale",17,"object-80","BIQ",NA,"SUPPRF24224"
"6",1708111567529,"16/02/2024 19:26:07",1708111567529,0,"16/02/2024 19:26:07",166635,2,"task-gjqt",NA,35237382,10410473,NA,"complete",NA,"65cfb5f8f1264ee93bd8ff8d","computer","Desktop or Laptop","Mac OS 10.15.7","Chrome 108.0.0.0","1440x900","1440x821",NA,NA,0,"BIQ (Charlotte)",3,"EFDGCHBIAJ","Passed AC2","","Spreadsheet1",1,"BIQ","Screen 2","o21mwi",2,"continue","",25200.5789999523,25183.907,25200.5789999523,25200.5789999523,25183.907,25200.5789999523,1,25200.5789999523,0,0,NA,"Click To Continue","Continue Button",22,"object-50","BIQ",NA,"SUPPRF24224"
"7",1708111567533,"16/02/2024 19:26:07",1708111567533,0,"16/02/2024 19:26:07",166635,2,"task-gjqt",NA,35237382,10410473,NA,"complete",NA,"65cfb5f8f1264ee93bd8ff8d","computer","Desktop or Laptop","Mac OS 10.15.7","Chrome 108.0.0.0","1440x900","1440x821",NA,NA,0,"BIQ (Charlotte)",3,"EFDGCHBIAJ","Passed AC2","","Spreadsheet1",1,"BIQ","Screen 2","o21mwi",2,"response","7",8171.859,25183.907,25200.618,8171.859,25183.907,25200.618,1,8171.859,17028.759,0,NA,"Rating Scale","Rating Scale",2,"object-259","BIQ",NA,"SUPPRF24224"
"8",1708111567534,"16/02/2024 19:26:07",1708111567534,0,"16/02/2024 19:26:07",166635,2,"task-gjqt",NA,35237382,10410473,NA,"complete",NA,"65cfb5f8f1264ee93bd8ff8d","computer","Desktop or Laptop","Mac OS 10.15.7","Chrome 108.0.0.0","1440x900","1440x821",NA,NA,0,"BIQ (Charlotte)",3,"EFDGCHBIAJ","Passed AC2","","Spreadsheet1",1,"BIQ","Screen 2","o21mwi",2,"response","1",15023.369,25183.907,25200.618,15023.369,25183.907,25200.618,1,15023.369,10177.249,0,NA,"Rating Scale","Rating Scale",9,"object-36","BIQ",NA,"SUPPRF24224"
"9",1708111567535,"16/02/2024 19:26:07",1708111567535,0,"16/02/2024 19:26:07",166635,2,"task-gjqt",NA,35237382,10410473,NA,"complete",NA,"65cfb5f8f1264ee93bd8ff8d","computer","Desktop or Laptop","Mac OS 10.15.7","Chrome 108.0.0.0","1440x900","1440x821",NA,NA,0,"BIQ (Charlotte)",3,"EFDGCHBIAJ","Passed AC2","","Spreadsheet1",1,"BIQ","Screen 2","o21mwi",2,"response","0",20822.336,25183.907,25200.618,20822.336,25183.907,25200.618,1,20822.336,4378.28199999999,0,NA,"Rating Scale","Rating Scale",16,"object-86","BIQ",NA,"SUPPRF24224"
"10",1708111590457,"16/02/2024 19:26:30",1708111590457,0,"16/02/2024 19:26:30",166635,2,"task-gjqt",NA,35237382,10410473,NA,"complete",NA,"65cfb5f8f1264ee93bd8ff8d","computer","Desktop or Laptop","Mac OS 10.15.7","Chrome 108.0.0.0","1440x900","1440x821",NA,NA,0,"BIQ (Charlotte)",3,"EFDGCHBIAJ","Passed AC2","","Spreadsheet1",1,"BIQ","Screen 3","iz3the",3,"continue","",22944.566,22927.855,22944.566,22944.566,22927.855,22944.566,1,22944.566,0,0,NA,"Click To Continue","Continue Button",22,"object-73","BIQ",NA,"SUPPRF24224"
"11",1708111590462,"16/02/2024 19:26:30",1708111590462,0,"16/02/2024 19:26:30",166635,2,"task-gjqt",NA,35237382,10410473,NA,"complete",NA,"65cfb5f8f1264ee93bd8ff8d","computer","Desktop or Laptop","Mac OS 10.15.7","Chrome 108.0.0.0","1440x900","1440x821",NA,NA,0,"BIQ (Charlotte)",3,"EFDGCHBIAJ","Passed AC2","","Spreadsheet1",1,"BIQ","Screen 3","iz3the",3,"response","0",6183.25,22927.855,22944.566,6183.25,22927.855,22944.566,1,6183.25,16761.316,0,NA,"Rating Scale","Rating Scale",2,"object-53","BIQ",NA,"SUPPRF24224"
"12",1708111590462,"16/02/2024 19:26:30",1708111590462,0,"16/02/2024 19:26:30",166635,2,"task-gjqt",NA,35237382,10410473,NA,"complete",NA,"65cfb5f8f1264ee93bd8ff8d","computer","Desktop or Laptop","Mac OS 10.15.7","Chrome 108.0.0.0","1440x900","1440x821",NA,NA,0,"BIQ (Charlotte)",3,"EFDGCHBIAJ","Passed AC2","","Spreadsheet1",1,"BIQ","Screen 3","iz3the",3,"response","2",13970.576,22927.855,22944.566,13970.576,22927.855,22944.566,1,13970.576,8973.98999999999,0,NA,"Rating Scale","Rating Scale",9,"object-60","BIQ",NA,"SUPPRF24224"
"13",1708111590463,"16/02/2024 19:26:30",1708111590463,0,"16/02/2024 19:26:30",166635,2,"task-gjqt",NA,35237382,10410473,NA,"complete",NA,"65cfb5f8f1264ee93bd8ff8d","computer","Desktop or Laptop","Mac OS 10.15.7","Chrome 108.0.0.0","1440x900","1440x821",NA,NA,0,"BIQ (Charlotte)",3,"EFDGCHBIAJ","Passed AC2","","Spreadsheet1",1,"BIQ","Screen 3","iz3the",3,"response","2",20655.159,22927.855,22944.566,20655.159,22927.855,22944.566,1,20655.159,2289.40699999999,0,NA,"Rating Scale","Rating Scale",16,"object-67","BIQ",NA,"SUPPRF24224"
"14",1708111590469,"16/02/2024 19:26:30",1708111590469,0,"16/02/2024 19:26:30",166635,2,"task-gjqt",NA,35237382,10410473,NA,"complete",NA,"65cfb5f8f1264ee93bd8ff8d","computer","Desktop or Laptop","Mac OS 10.15.7","Chrome 108.0.0.0","1440x900","1440x821",NA,NA,0,"BIQ (Charlotte)",3,"EFDGCHBIAJ","Passed AC2","","Spreadsheet1",NA,"","","",NA,"5","END",NA,NA,NA,NA,NA,NA,0,NA,NA,NA,NA,"","",NA,"","",NA,"SUPPRF24224"
"1",1708111714831,"16/02/2024 19:28:34",1708111714831,0,"16/02/2024 19:28:34",166635,2,"task-gjqt",NA,35237452,10410507,NA,"complete",NA,"65cfb71a6c39a6d844a84def","computer","Desktop or Laptop","Windows 10","Chrome 121.0.0.0","1536x864","1536x738",NA,NA,0,"BIQ (Charlotte)",3,"FGEHDICJBA","Passed AC2","","Spreadsheet1",NA,"","","",NA,"5","BEGIN",NA,NA,NA,NA,NA,NA,0,NA,NA,NA,NA,"","",NA,"","",NA,"SUPPRF68193"
"2",1708111737900,"16/02/2024 19:28:57",1708111737900,0,"16/02/2024 19:28:57",166635,2,"task-gjqt",NA,35237452,10410507,NA,"complete",NA,"65cfb71a6c39a6d844a84def","computer","Desktop or Laptop","Windows 10","Chrome 121.0.0.0","1536x864","1536x738",NA,NA,0,"BIQ (Charlotte)",3,"FGEHDICJBA","Passed AC2","","Spreadsheet1",1,"BIQ","Screen 1","9dh6eq",1,"continue","",23079.3,23072.4,23079.3,23079.3,23072.4,23079.3,1,23079.3,0,0,NA,"Click To Continue","Continue Button",23,"object-48","BIQ",NA,"SUPPRF68193"
"3",1708111737903,"16/02/2024 19:28:57",1708111737903,0,"16/02/2024 19:28:57",166635,2,"task-gjqt",NA,35237452,10410507,NA,"complete",NA,"65cfb71a6c39a6d844a84def","computer","Desktop or Laptop","Windows 10","Chrome 121.0.0.0","1536x864","1536x738",NA,NA,0,"BIQ (Charlotte)",3,"FGEHDICJBA","Passed AC2","","Spreadsheet1",1,"BIQ","Screen 1","9dh6eq",1,"response","7",12961.4,23072.4,23079.3,12961.4,23072.4,23079.3,1,12961.4,10117.9,0,NA,"Rating Scale","Rating Scale",3,"object-5","BIQ",NA,"SUPPRF68193"
"4",1708111737904,"16/02/2024 19:28:57",1708111737904,0,"16/02/2024 19:28:57",166635,2,"task-gjqt",NA,35237452,10410507,NA,"complete",NA,"65cfb71a6c39a6d844a84def","computer","Desktop or Laptop","Windows 10","Chrome 121.0.0.0","1536x864","1536x738",NA,NA,0,"BIQ (Charlotte)",3,"FGEHDICJBA","Passed AC2","","Spreadsheet1",1,"BIQ","Screen 1","9dh6eq",1,"response","6",19669.7,23072.4,23079.3,19669.7,23072.4,23079.3,1,19669.7,3409.6,0,NA,"Rating Scale","Rating Scale",10,"object-18","BIQ",NA,"SUPPRF68193"
"5",1708111737905,"16/02/2024 19:28:57",1708111737905,0,"16/02/2024 19:28:57",166635,2,"task-gjqt",NA,35237452,10410507,NA,"complete",NA,"65cfb71a6c39a6d844a84def","computer","Desktop or Laptop","Windows 10","Chrome 121.0.0.0","1536x864","1536x738",NA,NA,0,"BIQ (Charlotte)",3,"FGEHDICJBA","Passed AC2","","Spreadsheet1",1,"BIQ","Screen 1","9dh6eq",1,"response","5",22572.5,23072.4,23079.3,22572.5,23072.4,23079.3,1,22572.5,506.800000000003,0,NA,"Rating Scale","Rating Scale",17,"object-80","BIQ",NA,"SUPPRF68193"
"6",1708111754238,"16/02/2024 19:29:14",1708111754238,0,"16/02/2024 19:29:14",166635,2,"task-gjqt",NA,35237452,10410507,NA,"complete",NA,"65cfb71a6c39a6d844a84def","computer","Desktop or Laptop","Windows 10","Chrome 121.0.0.0","1536x864","1536x738",NA,NA,0,"BIQ (Charlotte)",3,"FGEHDICJBA","Passed AC2","","Spreadsheet1",1,"BIQ","Screen 2","o21mwi",2,"continue","",16347.399999997,16340.8,16347.399999997,16347.399999997,16340.8,16347.399999997,1,16347.399999997,0,0,NA,"Click To Continue","Continue Button",22,"object-50","BIQ",NA,"SUPPRF68193"
"7",1708111754242,"16/02/2024 19:29:14",1708111754242,0,"16/02/2024 19:29:14",166635,2,"task-gjqt",NA,35237452,10410507,NA,"complete",NA,"65cfb71a6c39a6d844a84def","computer","Desktop or Laptop","Windows 10","Chrome 121.0.0.0","1536x864","1536x738",NA,NA,0,"BIQ (Charlotte)",3,"FGEHDICJBA","Passed AC2","","Spreadsheet1",1,"BIQ","Screen 2","o21mwi",2,"response","8",4882.3,16340.8,16347.9,4882.3,16340.8,16347.9,1,4882.3,11465.6,0,NA,"Rating Scale","Rating Scale",2,"object-259","BIQ",NA,"SUPPRF68193"
"8",1708111754242,"16/02/2024 19:29:14",1708111754242,0,"16/02/2024 19:29:14",166635,2,"task-gjqt",NA,35237452,10410507,NA,"complete",NA,"65cfb71a6c39a6d844a84def","computer","Desktop or Laptop","Windows 10","Chrome 121.0.0.0","1536x864","1536x738",NA,NA,0,"BIQ (Charlotte)",3,"FGEHDICJBA","Passed AC2","","Spreadsheet1",1,"BIQ","Screen 2","o21mwi",2,"response","2",10507,16340.8,16347.9,10507,16340.8,16347.9,1,10507,5840.89999999999,0,NA,"Rating Scale","Rating Scale",9,"object-36","BIQ",NA,"SUPPRF68193"
"9",1708111754243,"16/02/2024 19:29:14",1708111754243,0,"16/02/2024 19:29:14",166635,2,"task-gjqt",NA,35237452,10410507,NA,"complete",NA,"65cfb71a6c39a6d844a84def","computer","Desktop or Laptop","Windows 10","Chrome 121.0.0.0","1536x864","1536x738",NA,NA,0,"BIQ (Charlotte)",3,"FGEHDICJBA","Passed AC2","","Spreadsheet1",1,"BIQ","Screen 2","o21mwi",2,"response","2",15180.6,16340.8,16347.9,15180.6,16340.8,16347.9,1,15180.6,1167.3,0,NA,"Rating Scale","Rating Scale",16,"object-86","BIQ",NA,"SUPPRF68193"
"10",1708111764708,"16/02/2024 19:29:24",1708111764708,0,"16/02/2024 19:29:24",166635,2,"task-gjqt",NA,35237452,10410507,NA,"complete",NA,"65cfb71a6c39a6d844a84def","computer","Desktop or Laptop","Windows 10","Chrome 121.0.0.0","1536x864","1536x738",NA,NA,0,"BIQ (Charlotte)",3,"FGEHDICJBA","Passed AC2","","Spreadsheet1",1,"BIQ","Screen 3","iz3the",3,"continue","",10477.099999997,10472.3,10477.099999997,10477.099999997,10472.3,10477.099999997,1,10477.099999997,0,0,NA,"Click To Continue","Continue Button",22,"object-73","BIQ",NA,"SUPPRF68193"
"11",1708111764712,"16/02/2024 19:29:24",1708111764712,0,"16/02/2024 19:29:24",166635,2,"task-gjqt",NA,35237452,10410507,NA,"complete",NA,"65cfb71a6c39a6d844a84def","computer","Desktop or Laptop","Windows 10","Chrome 121.0.0.0","1536x864","1536x738",NA,NA,0,"BIQ (Charlotte)",3,"FGEHDICJBA","Passed AC2","","Spreadsheet1",1,"BIQ","Screen 3","iz3the",3,"response","0",3832.9,10472.3,10479.8,3832.9,10472.3,10479.8,1,3832.9,6646.9,0,NA,"Rating Scale","Rating Scale",2,"object-53","BIQ",NA,"SUPPRF68193"
"12",1708111764713,"16/02/2024 19:29:24",1708111764713,0,"16/02/2024 19:29:24",166635,2,"task-gjqt",NA,35237452,10410507,NA,"complete",NA,"65cfb71a6c39a6d844a84def","computer","Desktop or Laptop","Windows 10","Chrome 121.0.0.0","1536x864","1536x738",NA,NA,0,"BIQ (Charlotte)",3,"FGEHDICJBA","Passed AC2","","Spreadsheet1",1,"BIQ","Screen 3","iz3the",3,"response","1",6763.60000000001,10472.3,10479.8,6763.60000000001,10472.3,10479.8,1,6763.60000000001,3716.2,0,NA,"Rating Scale","Rating Scale",9,"object-60","BIQ",NA,"SUPPRF68193"
"13",1708111764713,"16/02/2024 19:29:24",1708111764713,0,"16/02/2024 19:29:24",166635,2,"task-gjqt",NA,35237452,10410507,NA,"complete",NA,"65cfb71a6c39a6d844a84def","computer","Desktop or Laptop","Windows 10","Chrome 121.0.0.0","1536x864","1536x738",NA,NA,0,"BIQ (Charlotte)",3,"FGEHDICJBA","Passed AC2","","Spreadsheet1",1,"BIQ","Screen 3","iz3the",3,"response","5",8291.4,10472.3,10479.8,8291.4,10472.3,10479.8,1,8291.4,2188.4,0,NA,"Rating Scale","Rating Scale",16,"object-67","BIQ",NA,"SUPPRF68193"
"14",1708111764721,"16/02/2024 19:29:24",1708111764721,0,"16/02/2024 19:29:24",166635,2,"task-gjqt",NA,35237452,10410507,NA,"complete",NA,"65cfb71a6c39a6d844a84def","computer","Desktop or Laptop","Windows 10","Chrome 121.0.0.0","1536x864","1536x738",NA,NA,0,"BIQ (Charlotte)",3,"FGEHDICJBA","Passed AC2","","Spreadsheet1",NA,"","","",NA,"5","END",NA,NA,NA,NA,NA,NA,0,NA,NA,NA,NA,"","",NA,"","",NA,"SUPPRF68193"
"1",1708112176686,"16/02/2024 19:36:16",1708112176686,0,"16/02/2024 19:36:16",166635,2,"task-gjqt",NA,35237631,10410522,NA,"complete",NA,"65cfb67cb613ac74bfe89d1a","computer","Desktop or Laptop","Windows 10","Chrome 121.0.0.0","1366x768","1366x607",NA,NA,0,"BIQ (Charlotte)",3,"IJHAGBFCED","Passed AC2","","Spreadsheet1",NA,"","","",NA,"5","BEGIN",NA,NA,NA,NA,NA,NA,0,NA,NA,NA,NA,"","",NA,"","",NA,"SUPPRF54678"
"2",1708112225880,"16/02/2024 19:37:05",1708112225880,0,"16/02/2024 19:37:05",166635,2,"task-gjqt",NA,35237631,10410522,NA,"complete",NA,"65cfb67cb613ac74bfe89d1a","computer","Desktop or Laptop","Windows 10","Chrome 121.0.0.0","1366x768","1366x607",NA,NA,0,"BIQ (Charlotte)",3,"IJHAGBFCED","Passed AC2","","Spreadsheet1",1,"BIQ","Screen 1","9dh6eq",1,"continue","",49221.2859997139,49208.986,49221.2859997139,49221.2859997139,49208.986,49221.2859997139,1,49221.2859997139,0,0,NA,"Click To Continue","Continue Button",23,"object-48","BIQ",NA,"SUPPRF54678"
"3",1708112225888,"16/02/2024 19:37:05",1708112225888,0,"16/02/2024 19:37:05",166635,2,"task-gjqt",NA,35237631,10410522,NA,"complete",NA,"65cfb67cb613ac74bfe89d1a","computer","Desktop or Laptop","Windows 10","Chrome 121.0.0.0","1366x768","1366x607",NA,NA,0,"BIQ (Charlotte)",3,"IJHAGBFCED","Passed AC2","","Spreadsheet1",1,"BIQ","Screen 1","9dh6eq",1,"response","7",22913.586,49208.986,49225.386,22913.586,49208.986,49225.386,1,22913.586,26311.8,0,NA,"Rating Scale","Rating Scale",3,"object-5","BIQ",NA,"SUPPRF54678"
"4",1708112225890,"16/02/2024 19:37:05",1708112225890,0,"16/02/2024 19:37:05",166635,2,"task-gjqt",NA,35237631,10410522,NA,"complete",NA,"65cfb67cb613ac74bfe89d1a","computer","Desktop or Laptop","Windows 10","Chrome 121.0.0.0","1366x768","1366x607",NA,NA,0,"BIQ (Charlotte)",3,"IJHAGBFCED","Passed AC2","","Spreadsheet1",1,"BIQ","Screen 1","9dh6eq",1,"response","6",30162.386,49208.986,49225.386,30162.386,49208.986,49225.386,1,30162.386,19063,0,NA,"Rating Scale","Rating Scale",10,"object-18","BIQ",NA,"SUPPRF54678"
"5",1708112225892,"16/02/2024 19:37:05",1708112225892,0,"16/02/2024 19:37:05",166635,2,"task-gjqt",NA,35237631,10410522,NA,"complete",NA,"65cfb67cb613ac74bfe89d1a","computer","Desktop or Laptop","Windows 10","Chrome 121.0.0.0","1366x768","1366x607",NA,NA,0,"BIQ (Charlotte)",3,"IJHAGBFCED","Passed AC2","","Spreadsheet1",1,"BIQ","Screen 1","9dh6eq",1,"response","1",47442.886,49208.986,49225.386,47442.886,49208.986,49225.386,1,47442.886,1782.5,0,NA,"Rating Scale","Rating Scale",17,"object-80","BIQ",NA,"SUPPRF54678"
"6",1708112248121,"16/02/2024 19:37:28",1708112248121,0,"16/02/2024 19:37:28",166635,2,"task-gjqt",NA,35237631,10410522,NA,"complete",NA,"65cfb67cb613ac74bfe89d1a","computer","Desktop or Laptop","Windows 10","Chrome 121.0.0.0","1366x768","1366x607",NA,NA,0,"BIQ (Charlotte)",3,"IJHAGBFCED","Passed AC2","","Spreadsheet1",1,"BIQ","Screen 2","o21mwi",2,"continue","",22254.7999997139,22246.7,22254.7999997139,22254.7999997139,22246.7,22254.7999997139,1,22254.7999997139,0,0,NA,"Click To Continue","Continue Button",22,"object-50","BIQ",NA,"SUPPRF54678"
"7",1708112248127,"16/02/2024 19:37:28",1708112248127,0,"16/02/2024 19:37:28",166635,2,"task-gjqt",NA,35237631,10410522,NA,"complete",NA,"65cfb67cb613ac74bfe89d1a","computer","Desktop or Laptop","Windows 10","Chrome 121.0.0.0","1366x768","1366x607",NA,NA,0,"BIQ (Charlotte)",3,"IJHAGBFCED","Passed AC2","","Spreadsheet1",1,"BIQ","Screen 2","o21mwi",2,"response","8",4032.8,22246.7,22261.1999998093,4032.8,22246.7,22261.1999998093,1,4032.8,18228.3999998093,0,NA,"Rating Scale","Rating Scale",2,"object-259","BIQ",NA,"SUPPRF54678"
"8",1708112248129,"16/02/2024 19:37:28",1708112248129,0,"16/02/2024 19:37:28",166635,2,"task-gjqt",NA,35237631,10410522,NA,"complete",NA,"65cfb67cb613ac74bfe89d1a","computer","Desktop or Laptop","Windows 10","Chrome 121.0.0.0","1366x768","1366x607",NA,NA,0,"BIQ (Charlotte)",3,"IJHAGBFCED","Passed AC2","","Spreadsheet1",1,"BIQ","Screen 2","o21mwi",2,"response","3",12448.3,22246.7,22262.5999999046,12448.3,22246.7,22262.5999999046,1,12448.3,9814.29999990463,0,NA,"Rating Scale","Rating Scale",9,"object-36","BIQ",NA,"SUPPRF54678"
"9",1708112248132,"16/02/2024 19:37:28",1708112248132,0,"16/02/2024 19:37:28",166635,2,"task-gjqt",NA,35237631,10410522,NA,"complete",NA,"65cfb67cb613ac74bfe89d1a","computer","Desktop or Laptop","Windows 10","Chrome 121.0.0.0","1366x768","1366x607",NA,NA,0,"BIQ (Charlotte)",3,"IJHAGBFCED","Passed AC2","","Spreadsheet1",1,"BIQ","Screen 2","o21mwi",2,"response","0",18430.9,22246.7,22263.1,18430.9,22246.7,22263.1,1,18430.9,3832.2,0,NA,"Rating Scale","Rating Scale",16,"object-86","BIQ",NA,"SUPPRF54678"
"10",1708112265868,"16/02/2024 19:37:45",1708112265868,0,"16/02/2024 19:37:45",166635,2,"task-gjqt",NA,35237631,10410522,NA,"complete",NA,"65cfb67cb613ac74bfe89d1a","computer","Desktop or Laptop","Windows 10","Chrome 121.0.0.0","1366x768","1366x607",NA,NA,0,"BIQ (Charlotte)",3,"IJHAGBFCED","Passed AC2","","Spreadsheet1",1,"BIQ","Screen 3","iz3the",3,"continue","",17755.3,17747.2,17755.3,17755.3,17747.2,17755.3,1,17755.3,0,0,NA,"Click To Continue","Continue Button",22,"object-73","BIQ",NA,"SUPPRF54678"
"11",1708112265874,"16/02/2024 19:37:45",1708112265874,0,"16/02/2024 19:37:45",166635,2,"task-gjqt",NA,35237631,10410522,NA,"complete",NA,"65cfb67cb613ac74bfe89d1a","computer","Desktop or Laptop","Windows 10","Chrome 121.0.0.0","1366x768","1366x607",NA,NA,0,"BIQ (Charlotte)",3,"IJHAGBFCED","Passed AC2","","Spreadsheet1",1,"BIQ","Screen 3","iz3the",3,"response","0",5799.3,17747.2,17761.7000000954,5799.3,17747.2,17761.7000000954,1,5799.3,11962.4000000954,0,NA,"Rating Scale","Rating Scale",2,"object-53","BIQ",NA,"SUPPRF54678"
"12",1708112265879,"16/02/2024 19:37:45",1708112265879,0,"16/02/2024 19:37:45",166635,2,"task-gjqt",NA,35237631,10410522,NA,"complete",NA,"65cfb67cb613ac74bfe89d1a","computer","Desktop or Laptop","Windows 10","Chrome 121.0.0.0","1366x768","1366x607",NA,NA,0,"BIQ (Charlotte)",3,"IJHAGBFCED","Passed AC2","","Spreadsheet1",1,"BIQ","Screen 3","iz3the",3,"response","0",10065.2,17747.2,17763.9,10065.2,17747.2,17763.9,1,10065.2,7698.7,0,NA,"Rating Scale","Rating Scale",9,"object-60","BIQ",NA,"SUPPRF54678"
"13",1708112265881,"16/02/2024 19:37:45",1708112265881,0,"16/02/2024 19:37:45",166635,2,"task-gjqt",NA,35237631,10410522,NA,"complete",NA,"65cfb67cb613ac74bfe89d1a","computer","Desktop or Laptop","Windows 10","Chrome 121.0.0.0","1366x768","1366x607",NA,NA,0,"BIQ (Charlotte)",3,"IJHAGBFCED","Passed AC2","","Spreadsheet1",1,"BIQ","Screen 3","iz3the",3,"response","2",15180.8,17747.2,17763.9,15180.8,17747.2,17763.9,1,15180.8,2583.09999999999,0,NA,"Rating Scale","Rating Scale",16,"object-67","BIQ",NA,"SUPPRF54678"
"14",1708112265894,"16/02/2024 19:37:45",1708112265894,0,"16/02/2024 19:37:45",166635,2,"task-gjqt",NA,35237631,10410522,NA,"complete",NA,"65cfb67cb613ac74bfe89d1a","computer","Desktop or Laptop","Windows 10","Chrome 121.0.0.0","1366x768","1366x607",NA,NA,0,"BIQ (Charlotte)",3,"IJHAGBFCED","Passed AC2","","Spreadsheet1",NA,"","","",NA,"5","END",NA,NA,NA,NA,NA,NA,0,NA,NA,NA,NA,"","",NA,"","",NA,"SUPPRF54678"
"1",1708112734862,"16/02/2024 19:45:34",1708112734862,0,"16/02/2024 19:45:34",166635,2,"task-gjqt",NA,35237922,10410544,NA,"complete",NA,"65cfb775739cdfcf63af397d","computer","Desktop or Laptop","Mac OS 10.16.0","Chrome 69.0.3497.100","1280x800","1200x590",NA,NA,0,"BIQ (Charlotte)",3,"JAIBHCGDFE","Passed AC2","","Spreadsheet1",NA,"","","",NA,"5","BEGIN",NA,NA,NA,NA,NA,NA,0,NA,NA,NA,NA,"","",NA,"","",NA,"SUPPRF68806"
"2",1708112783013,"16/02/2024 19:46:23",1708112783013,0,"16/02/2024 19:46:23",166635,2,"task-gjqt",NA,35237922,10410544,NA,"complete",NA,"65cfb775739cdfcf63af397d","computer","Desktop or Laptop","Mac OS 10.16.0","Chrome 69.0.3497.100","1280x800","1200x590",NA,NA,0,"BIQ (Charlotte)",3,"JAIBHCGDFE","Passed AC2","","Spreadsheet1",1,"BIQ","Screen 1","9dh6eq",1,"continue","",48182.7049999853,48172.689,48182.7049999853,48182.7049999853,48172.689,48182.7049999853,1,48182.7049999853,0,0,NA,"Click To Continue","Continue Button",23,"object-48","BIQ",NA,"SUPPRF68806"
"3",1708112783021,"16/02/2024 19:46:23",1708112783021,0,"16/02/2024 19:46:23",166635,2,"task-gjqt",NA,35237922,10410544,NA,"complete",NA,"65cfb775739cdfcf63af397d","computer","Desktop or Laptop","Mac OS 10.16.0","Chrome 69.0.3497.100","1280x800","1200x590",NA,NA,0,"BIQ (Charlotte)",3,"JAIBHCGDFE","Passed AC2","","Spreadsheet1",1,"BIQ","Screen 1","9dh6eq",1,"response","6",25670.815,48172.689,48189.362,25670.815,48172.689,48189.362,1,25670.815,22518.547,0,NA,"Rating Scale","Rating Scale",3,"object-5","BIQ",NA,"SUPPRF68806"
"4",1708112783021,"16/02/2024 19:46:23",1708112783021,0,"16/02/2024 19:46:23",166635,2,"task-gjqt",NA,35237922,10410544,NA,"complete",NA,"65cfb775739cdfcf63af397d","computer","Desktop or Laptop","Mac OS 10.16.0","Chrome 69.0.3497.100","1280x800","1200x590",NA,NA,0,"BIQ (Charlotte)",3,"JAIBHCGDFE","Passed AC2","","Spreadsheet1",1,"BIQ","Screen 1","9dh6eq",1,"response","6",31172.905,48172.689,48189.362,31172.905,48172.689,48189.362,1,31172.905,17016.457,0,NA,"Rating Scale","Rating Scale",10,"object-18","BIQ",NA,"SUPPRF68806"
"5",1708112783022,"16/02/2024 19:46:23",1708112783022,0,"16/02/2024 19:46:23",166635,2,"task-gjqt",NA,35237922,10410544,NA,"complete",NA,"65cfb775739cdfcf63af397d","computer","Desktop or Laptop","Mac OS 10.16.0","Chrome 69.0.3497.100","1280x800","1200x590",NA,NA,0,"BIQ (Charlotte)",3,"JAIBHCGDFE","Passed AC2","","Spreadsheet1",1,"BIQ","Screen 1","9dh6eq",1,"response","2",36198.309,48172.689,48189.362,36198.309,48172.689,48189.362,1,36198.309,11991.053,0,NA,"Rating Scale","Rating Scale",17,"object-80","BIQ",NA,"SUPPRF68806"
"6",1708112806819,"16/02/2024 19:46:46",1708112806819,0,"16/02/2024 19:46:46",166635,2,"task-gjqt",NA,35237922,10410544,NA,"complete",NA,"65cfb775739cdfcf63af397d","computer","Desktop or Laptop","Mac OS 10.16.0","Chrome 69.0.3497.100","1280x800","1200x590",NA,NA,0,"BIQ (Charlotte)",3,"JAIBHCGDFE","Passed AC2","","Spreadsheet1",1,"BIQ","Screen 2","o21mwi",2,"continue","",23874.1159999914,23865.154,23874.1159999914,23874.1159999914,23865.154,23874.1159999914,1,23874.1159999914,0,0,NA,"Click To Continue","Continue Button",22,"object-50","BIQ",NA,"SUPPRF68806"
"7",1708112806825,"16/02/2024 19:46:46",1708112806825,0,"16/02/2024 19:46:46",166635,2,"task-gjqt",NA,35237922,10410544,NA,"complete",NA,"65cfb775739cdfcf63af397d","computer","Desktop or Laptop","Mac OS 10.16.0","Chrome 69.0.3497.100","1280x800","1200x590",NA,NA,0,"BIQ (Charlotte)",3,"JAIBHCGDFE","Passed AC2","","Spreadsheet1",1,"BIQ","Screen 2","o21mwi",2,"response","7",7056.991,23865.154,23880.8159999895,7056.991,23865.154,23880.8159999895,1,7056.991,16823.8249999895,0,NA,"Rating Scale","Rating Scale",2,"object-259","BIQ",NA,"SUPPRF68806"
"8",1708112806826,"16/02/2024 19:46:46",1708112806826,0,"16/02/2024 19:46:46",166635,2,"task-gjqt",NA,35237922,10410544,NA,"complete",NA,"65cfb775739cdfcf63af397d","computer","Desktop or Laptop","Mac OS 10.16.0","Chrome 69.0.3497.100","1280x800","1200x590",NA,NA,0,"BIQ (Charlotte)",3,"JAIBHCGDFE","Passed AC2","","Spreadsheet1",1,"BIQ","Screen 2","o21mwi",2,"response","1",11125.203,23865.154,23881.2160000085,11125.203,23865.154,23881.2160000085,1,11125.203,12756.0130000085,0,NA,"Rating Scale","Rating Scale",9,"object-36","BIQ",NA,"SUPPRF68806"
"9",1708112806826,"16/02/2024 19:46:46",1708112806826,0,"16/02/2024 19:46:46",166635,2,"task-gjqt",NA,35237922,10410544,NA,"complete",NA,"65cfb775739cdfcf63af397d","computer","Desktop or Laptop","Mac OS 10.16.0","Chrome 69.0.3497.100","1280x800","1200x590",NA,NA,0,"BIQ (Charlotte)",3,"JAIBHCGDFE","Passed AC2","","Spreadsheet1",1,"BIQ","Screen 2","o21mwi",2,"response","0",21981.105,23865.154,23881.5159999937,21981.105,23865.154,23881.5159999937,1,21981.105,1900.41099999366,0,NA,"Rating Scale","Rating Scale",16,"object-86","BIQ",NA,"SUPPRF68806"
"10",1708112822204,"16/02/2024 19:47:02",1708112822204,0,"16/02/2024 19:47:02",166635,2,"task-gjqt",NA,35237922,10410544,NA,"complete",NA,"65cfb775739cdfcf63af397d","computer","Desktop or Laptop","Mac OS 10.16.0","Chrome 69.0.3497.100","1280x800","1200x590",NA,NA,0,"BIQ (Charlotte)",3,"JAIBHCGDFE","Passed AC2","","Spreadsheet1",1,"BIQ","Screen 3","iz3the",3,"continue","",15394.96199999,15382.268,15394.96199999,15394.96199999,15382.268,15394.96199999,1,15394.96199999,0,0,NA,"Click To Continue","Continue Button",22,"object-73","BIQ",NA,"SUPPRF68806"
