"","Event.Index","UTC.Timestamp","UTC.Date.and.Time","Local.Timestamp","Local.Timezone","Local.Date.and.Time","Experiment.ID","Experiment.Version","Tree.Node.Key","Repeat.Key","Schedule.ID","Participant.Starting.Group","Participant.Status","Participant.Completion.Code","Participant.External.Session.ID","Participant.Device.Type","Participant.Device","Participant.OS","Participant.Browser","Participant.Monitor.Size","Participant.Viewport.Size","Checkpoint","Room.ID","Room.Order","Task.Name","Task.Version","order.ot79","randomiser.lqqr","randomiser.28m8","randomiser.tf5j","Spreadsheet","Trial.Number","Display","Screen","Screen.ID","Screen.Counter","Response.Type","Response","Onset.Time","Clock.Time","Reaction.Time","Absolute.Onset.Time","Absolute.Clock.Time","Absolute.Reaction.Time","Correct","Response.Onset","Response.Duration","Proportion","Tag","Component.Name","Object.Name","Object.Number","Object.ID","Spreadsheet..display","Spreadsheet..Index","Spreadsheet..X1","Spreadsheet..X2","Spreadsheet..Display","Spreadsheet..test_response_save","Manipulation..Spreadsheet","Store..test_response_save","Random_ID"
"1",1,1692005536357,"14/08/2023 09:32:16",1692009136357,1,"14/08/2023 11:32:16",140743,17,"task-5vg1",NA,31172407,NA,"complete",NA,"64d9ff71624435bf2a23761d","computer","Desktop or Laptop","Windows 10","Chrome 115.0.0.0","1536x864","1536x707",NA,NA,0,"Feedback Phrases Task - List 2 (Clone with new randomisation)",4,"CDBEAFJGIH",NA,"study_2 (video_feedback and feedback_list_2)","Feedback_ranking_L2_first","Feedback Phrases List 2",NA,"","","",NA,"5","BEGIN",NA,NA,NA,NA,NA,NA,0,NA,NA,NA,NA,"","",NA,"",NA,NA,"","","",NA,NA,NA,"SUPPRF16300"
"2",2,1692005553499,"14/08/2023 09:32:33",1692009153499,1,"14/08/2023 11:32:33",140743,17,"task-5vg1",NA,31172407,NA,"complete",NA,"64d9ff71624435bf2a23761d","computer","Desktop or Laptop","Windows 10","Chrome 115.0.0.0","1536x864","1536x707",NA,NA,0,"Feedback Phrases Task - List 2 (Clone with new randomisation)",4,"CDBEAFJGIH",NA,"study_2 (video_feedback and feedback_list_2)","Feedback_ranking_L2_first","Feedback Phrases List 2",1,"Instructions","Screen 3","6w7c99",1,"continue","",17150.098,17133.354,17150.098,17150.098,17133.354,17150.098,1,17150.098,0,0,NA,"Click To Continue","Continue Button",2,"object-29",NA,NA,"","","Instructions",NA,NA,NA,"SUPPRF16300"
"3",3,1692005557012,"14/08/2023 09:32:37",1692009157012,1,"14/08/2023 11:32:37",140743,17,"task-5vg1",NA,31172407,NA,"complete",NA,"64d9ff71624435bf2a23761d","computer","Desktop or Laptop","Windows 10","Chrome 115.0.0.0","1536x864","1536x707",NA,NA,0,"Feedback Phrases Task - List 2 (Clone with new randomisation)",4,"CDBEAFJGIH",NA,"study_2 (video_feedback and feedback_list_2)","Feedback_ranking_L2_first","Feedback Phrases List 2",1,"Instructions","Screen 4","4vof69",2,"continue","",3533.569,3516.809,3533.569,3533.569,3516.809,3533.569,1,3533.569,0,0,NA,"Click To Continue","Continue Button",2,"object-41",NA,NA,"","","Instructions",NA,NA,NA,"SUPPRF16300"
"4",4,1692005562590,"14/08/2023 09:32:42",1692009162590,1,"14/08/2023 11:32:42",140743,17,"task-5vg1",NA,31172407,NA,"complete",NA,"64d9ff71624435bf2a23761d","computer","Desktop or Laptop","Windows 10","Chrome 115.0.0.0","1536x864","1536x707",NA,NA,0,"Feedback Phrases Task - List 2 (Clone with new randomisation)",4,"CDBEAFJGIH",NA,"study_2 (video_feedback and feedback_list_2)","Feedback_ranking_L2_first","Feedback Phrases List 2",1,"Task","Screen 1","113qg5",1,"response","Excellent!",5594.59799998808,5583.195,5594.59799998808,5594.59799998808,5583.195,5594.59799998808,1,5594.59799998808,0,0,NA,"Click Response","Text_right_X2",3,"object-19",NA,1,"You appeared very confident.","Excellent!","Task",NA,NA,NA,"SUPPRF16300"
"5",5,1692005564346,"14/08/2023 09:32:44",1692009164346,1,"14/08/2023 11:32:44",140743,17,"task-5vg1",NA,31172407,NA,"complete",NA,"64d9ff71624435bf2a23761d","computer","Desktop or Laptop","Windows 10","Chrome 115.0.0.0","1536x864","1536x707",NA,NA,0,"Feedback Phrases Task - List 2 (Clone with new randomisation)",4,"CDBEAFJGIH",NA,"study_2 (video_feedback and feedback_list_2)","Feedback_ranking_L2_first","Feedback Phrases List 2",1,"Task","Screen 3","izqege",2,"continue","",1766.795,1766.795,1766.795,1766.795,1766.795,1766.795,1,1766.795,0,0,NA,"Fixation Timing","Fixation Cross",1,"object-48",NA,1,"You appeared very confident.","Excellent!","Task",NA,NA,NA,"SUPPRF16300"
"6",6,1692005566974,"14/08/2023 09:32:46",1692009166974,1,"14/08/2023 11:32:46",140743,17,"task-5vg1",NA,31172407,NA,"complete",NA,"64d9ff71624435bf2a23761d","computer","Desktop or Laptop","Windows 10","Chrome 115.0.0.0","1536x864","1536x707",NA,NA,0,"Feedback Phrases Task - List 2 (Clone with new randomisation)",4,"CDBEAFJGIH",NA,"study_2 (video_feedback and feedback_list_2)","Feedback_ranking_L2_first","Feedback Phrases List 2",2,"Task","Screen 1","113qg5",1,"response","You said all the right things.",2628.60799998808,2616.551,2628.60799998808,2628.60799998808,2616.551,2628.60799998808,1,2628.60799998808,0,0,NA,"Click Response","Text_left_X1",2,"object-18",NA,1,"You said all the right things.","That was perfect.","Task",NA,NA,NA,"SUPPRF16300"
"7",7,1692005568728,"14/08/2023 09:32:48",1692009168728,1,"14/08/2023 11:32:48",140743,17,"task-5vg1",NA,31172407,NA,"complete",NA,"64d9ff71624435bf2a23761d","computer","Desktop or Laptop","Windows 10","Chrome 115.0.0.0","1536x864","1536x707",NA,NA,0,"Feedback Phrases Task - List 2 (Clone with new randomisation)",4,"CDBEAFJGIH",NA,"study_2 (video_feedback and feedback_list_2)","Feedback_ranking_L2_first","Feedback Phrases List 2",2,"Task","Screen 3","izqege",2,"continue","",1766.597,1766.597,1766.597,1766.597,1766.597,1766.597,1,1766.597,0,0,NA,"Fixation Timing","Fixation Cross",1,"object-48",NA,1,"You said all the right things.","That was perfect.","Task",NA,NA,NA,"SUPPRF16300"
"8",8,1692005569873,"14/08/2023 09:32:49",1692009169873,1,"14/08/2023 11:32:49",140743,17,"task-5vg1",NA,31172407,NA,"complete",NA,"64d9ff71624435bf2a23761d","computer","Desktop or Laptop","Windows 10","Chrome 115.0.0.0","1536x864","1536x707",NA,NA,0,"Feedback Phrases Task - List 2 (Clone with new randomisation)",4,"CDBEAFJGIH",NA,"study_2 (video_feedback and feedback_list_2)","Feedback_ranking_L2_first","Feedback Phrases List 2",3,"Task","Screen 1","113qg5",1,"response","You appeared very confident.",1145.76,1133.241,1145.76,1145.76,1133.241,1145.76,1,1145.76,0,0,NA,"Click Response","Text_right_X2",3,"object-19",NA,1,"That was decent.","You appeared very confident.","Task",NA,NA,NA,"SUPPRF16300"
"9",9,1692005571628,"14/08/2023 09:32:51",1692009171628,1,"14/08/2023 11:32:51",140743,17,"task-5vg1",NA,31172407,NA,"complete",NA,"64d9ff71624435bf2a23761d","computer","Desktop or Laptop","Windows 10","Chrome 115.0.0.0","1536x864","1536x707",NA,NA,0,"Feedback Phrases Task - List 2 (Clone with new randomisation)",4,"CDBEAFJGIH",NA,"study_2 (video_feedback and feedback_list_2)","Feedback_ranking_L2_first","Feedback Phrases List 2",3,"Task","Screen 3","izqege",2,"continue","",1766.833,1766.833,1766.833,1766.833,1766.833,1766.833,1,1766.833,0,0,NA,"Fixation Timing","Fixation Cross",1,"object-48",NA,1,"That was decent.","You appeared very confident.","Task",NA,NA,NA,"SUPPRF16300"
"10",10,1692005574726,"14/08/2023 09:32:54",1692009174726,1,"14/08/2023 11:32:54",140743,17,"task-5vg1",NA,31172407,NA,"complete",NA,"64d9ff71624435bf2a23761d","computer","Desktop or Laptop","Windows 10","Chrome 115.0.0.0","1536x864","1536x707",NA,NA,0,"Feedback Phrases Task - List 2 (Clone with new randomisation)",4,"CDBEAFJGIH",NA,"study_2 (video_feedback and feedback_list_2)","Feedback_ranking_L2_first","Feedback Phrases List 2",4,"Task","Screen 1","113qg5",1,"response","Well done!",3099.186,3083.226,3099.186,3099.186,3083.226,3099.186,1,3099.186,0,0,NA,"Click Response","Text_right_X2",3,"object-19",NA,1,"That was satisfactory.","Well done!","Task",NA,NA,NA,"SUPPRF16300"
"11",11,1692005576478,"14/08/2023 09:32:56",1692009176478,1,"14/08/2023 11:32:56",140743,17,"task-5vg1",NA,31172407,NA,"complete",NA,"64d9ff71624435bf2a23761d","computer","Desktop or Laptop","Windows 10","Chrome 115.0.0.0","1536x864","1536x707",NA,NA,0,"Feedback Phrases Task - List 2 (Clone with new randomisation)",4,"CDBEAFJGIH",NA,"study_2 (video_feedback and feedback_list_2)","Feedback_ranking_L2_first","Feedback Phrases List 2",4,"Task","Screen 3","izqege",2,"continue","",1766.742,1766.742,1766.742,1766.742,1766.742,1766.742,1,1766.742,0,0,NA,"Fixation Timing","Fixation Cross",1,"object-48",NA,1,"That was satisfactory.","Well done!","Task",NA,NA,NA,"SUPPRF16300"
"12",12,1692005578129,"14/08/2023 09:32:58",1692009178129,1,"14/08/2023 11:32:58",140743,17,"task-5vg1",NA,31172407,NA,"complete",NA,"64d9ff71624435bf2a23761d","computer","Desktop or Laptop","Windows 10","Chrome 115.0.0.0","1536x864","1536x707",NA,NA,0,"Feedback Phrases Task - List 2 (Clone with new randomisation)",4,"CDBEAFJGIH",NA,"study_2 (video_feedback and feedback_list_2)","Feedback_ranking_L2_first","Feedback Phrases List 2",5,"Task","Screen 1","113qg5",1,"response","You are really engaging when you speak.",1651.218,1649.937,1651.218,1651.218,1649.937,1651.218,1,1651.218,0,0,NA,"Click Response","Text_left_X1",2,"object-18",NA,1,"You are really engaging when you speak.","You did what was asked of you.","Task",NA,NA,NA,"SUPPRF16300"
"13",13,1692005579894,"14/08/2023 09:32:59",1692009179894,1,"14/08/2023 11:32:59",140743,17,"task-5vg1",NA,31172407,NA,"complete",NA,"64d9ff71624435bf2a23761d","computer","Desktop or Laptop","Windows 10","Chrome 115.0.0.0","1536x864","1536x707",NA,NA,0,"Feedback Phrases Task - List 2 (Clone with new randomisation)",4,"CDBEAFJGIH",NA,"study_2 (video_feedback and feedback_list_2)","Feedback_ranking_L2_first","Feedback Phrases List 2",5,"Task","Screen 3","izqege",2,"continue","",1766.587,1766.587,1766.587,1766.587,1766.587,1766.587,1,1766.587,0,0,NA,"Fixation Timing","Fixation Cross",1,"object-48",NA,1,"You are really engaging when you speak.","You did what was asked of you.","Task",NA,NA,NA,"SUPPRF16300"
"14",14,1692005581462,"14/08/2023 09:33:01",1692009181462,1,"14/08/2023 11:33:01",140743,17,"task-5vg1",NA,31172407,NA,"complete",NA,"64d9ff71624435bf2a23761d","computer","Desktop or Laptop","Windows 10","Chrome 115.0.0.0","1536x864","1536x707",NA,NA,0,"Feedback Phrases Task - List 2 (Clone with new randomisation)",4,"CDBEAFJGIH",NA,"study_2 (video_feedback and feedback_list_2)","Feedback_ranking_L2_first","Feedback Phrases List 2",6,"Task","Screen 1","113qg5",1,"response","Excellent!",1566.87900000001,1550.147,1566.87900000001,1566.87900000001,1550.147,1566.87900000001,1,1566.87900000001,0,0,NA,"Click Response","Text_left_X1",2,"object-18",NA,1,"Excellent!","Well done!","Task",NA,NA,NA,"SUPPRF16300"
"15",15,1692005583212,"14/08/2023 09:33:03",1692009183212,1,"14/08/2023 11:33:03",140743,17,"task-5vg1",NA,31172407,NA,"complete",NA,"64d9ff71624435bf2a23761d","computer","Desktop or Laptop","Windows 10","Chrome 115.0.0.0","1536x864","1536x707",NA,NA,0,"Feedback Phrases Task - List 2 (Clone with new randomisation)",4,"CDBEAFJGIH",NA,"study_2 (video_feedback and feedback_list_2)","Feedback_ranking_L2_first","Feedback Phrases List 2",6,"Task","Screen 3","izqege",2,"continue","",1766.442,1766.442,1766.442,1766.442,1766.442,1766.442,1,1766.442,0,0,NA,"Fixation Timing","Fixation Cross",1,"object-48",NA,1,"Excellent!","Well done!","Task",NA,NA,NA,"SUPPRF16300"
"16",16,1692005584822,"14/08/2023 09:33:04",1692009184822,1,"14/08/2023 11:33:04",140743,17,"task-5vg1",NA,31172407,NA,"complete",NA,"64d9ff71624435bf2a23761d","computer","Desktop or Laptop","Windows 10","Chrome 115.0.0.0","1536x864","1536x707",NA,NA,0,"Feedback Phrases Task - List 2 (Clone with new randomisation)",4,"CDBEAFJGIH",NA,"study_2 (video_feedback and feedback_list_2)","Feedback_ranking_L2_first","Feedback Phrases List 2",7,"Task","Screen 1","113qg5",1,"response","You seemed very in-control.",1611.80499998808,1600.06800000001,1611.80499998808,1611.80499998808,1600.06800000001,1611.80499998808,1,1611.80499998808,0,0,NA,"Click Response","Text_left_X1",2,"object-18",NA,1,"You seemed very in-control.","Well done!","Task",NA,NA,NA,"SUPPRF16300"
"17",17,1692005586578,"14/08/2023 09:33:06",1692009186578,1,"14/08/2023 11:33:06",140743,17,"task-5vg1",NA,31172407,NA,"complete",NA,"64d9ff71624435bf2a23761d","computer","Desktop or Laptop","Windows 10","Chrome 115.0.0.0","1536x864","1536x707",NA,NA,0,"Feedback Phrases Task - List 2 (Clone with new randomisation)",4,"CDBEAFJGIH",NA,"study_2 (video_feedback and feedback_list_2)","Feedback_ranking_L2_first","Feedback Phrases List 2",7,"Task","Screen 3","izqege",2,"continue","",1766.73499999999,1766.73499999999,1766.73499999999,1766.73499999999,1766.73499999999,1766.73499999999,1,1766.73499999999,0,0,NA,"Fixation Timing","Fixation Cross",1,"object-48",NA,1,"You seemed very in-control.","Well done!","Task",NA,NA,NA,"SUPPRF16300"
"18",18,1692005588580,"14/08/2023 09:33:08",1692009188580,1,"14/08/2023 11:33:08",140743,17,"task-5vg1",NA,31172407,NA,"complete",NA,"64d9ff71624435bf2a23761d","computer","Desktop or Laptop","Windows 10","Chrome 115.0.0.0","1536x864","1536x707",NA,NA,0,"Feedback Phrases Task - List 2 (Clone with new randomisation)",4,"CDBEAFJGIH",NA,"study_2 (video_feedback and feedback_list_2)","Feedback_ranking_L2_first","Feedback Phrases List 2",8,"Task","Screen 1","113qg5",1,"response","You are really engaging when you speak.",2003.00199998808,1999.987,2003.00199998808,2003.00199998808,1999.987,2003.00199998808,1,2003.00199998808,0,0,NA,"Click Response","Text_left_X1",2,"object-18",NA,1,"You are really engaging when you speak.","You seemed very in-control.","Task",NA,NA,NA,"SUPPRF16300"
"19",19,1692005590344,"14/08/2023 09:33:10",1692009190344,1,"14/08/2023 11:33:10",140743,17,"task-5vg1",NA,31172407,NA,"complete",NA,"64d9ff71624435bf2a23761d","computer","Desktop or Laptop","Windows 10","Chrome 115.0.0.0","1536x864","1536x707",NA,NA,0,"Feedback Phrases Task - List 2 (Clone with new randomisation)",4,"CDBEAFJGIH",NA,"study_2 (video_feedback and feedback_list_2)","Feedback_ranking_L2_first","Feedback Phrases List 2",8,"Task","Screen 3","izqege",2,"continue","",1766.68900000001,1766.68900000001,1766.68900000001,1766.68900000001,1766.68900000001,1766.68900000001,1,1766.68900000001,0,0,NA,"Fixation Timing","Fixation Cross",1,"object-48",NA,1,"You are really engaging when you speak.","You seemed very in-control.","Task",NA,NA,NA,"SUPPRF16300"
"20",20,1692005591414,"14/08/2023 09:33:11",1692009191414,1,"14/08/2023 11:33:11",140743,17,"task-5vg1",NA,31172407,NA,"complete",NA,"64d9ff71624435bf2a23761d","computer","Desktop or Laptop","Windows 10","Chrome 115.0.0.0","1536x864","1536x707",NA,NA,0,"Feedback Phrases Task - List 2 (Clone with new randomisation)",4,"CDBEAFJGIH",NA,"study_2 (video_feedback and feedback_list_2)","Feedback_ranking_L2_first","Feedback Phrases List 2",9,"Task","Screen 1","113qg5",1,"response","You're very articulate.",1070.42599998212,1066.63299999999,1070.42599998212,1070.42599998212,1066.63299999999,1070.42599998212,1,1070.42599998212,0,0,NA,"Click Response","Text_right_X2",3,"object-19",NA,1,"That was decent.","You're very articulate.","Task",NA,NA,NA,"SUPPRF16300"
"21",21,1692005593178,"14/08/2023 09:33:13",1692009193178,1,"14/08/2023 11:33:13",140743,17,"task-5vg1",NA,31172407,NA,"complete",NA,"64d9ff71624435bf2a23761d","computer","Desktop or Laptop","Windows 10","Chrome 115.0.0.0","1536x864","1536x707",NA,NA,0,"Feedback Phrases Task - List 2 (Clone with new randomisation)",4,"CDBEAFJGIH",NA,"study_2 (video_feedback and feedback_list_2)","Feedback_ranking_L2_first","Feedback Phrases List 2",9,"Task","Screen 3","izqege",2,"continue","",1766.683,1766.683,1766.683,1766.683,1766.683,1766.683,1,1766.683,0,0,NA,"Fixation Timing","Fixation Cross",1,"object-48",NA,1,"That was decent.","You're very articulate.","Task",NA,NA,NA,"SUPPRF16300"
"22",22,1692005594619,"14/08/2023 09:33:14",1692009194619,1,"14/08/2023 11:33:14",140743,17,"task-5vg1",NA,31172407,NA,"complete",NA,"64d9ff71624435bf2a23761d","computer","Desktop or Laptop","Windows 10","Chrome 115.0.0.0","1536x864","1536x707",NA,NA,0,"Feedback Phrases Task - List 2 (Clone with new randomisation)",4,"CDBEAFJGIH",NA,"study_2 (video_feedback and feedback_list_2)","Feedback_ranking_L2_first","Feedback Phrases List 2",10,"Task","Screen 1","113qg5",1,"response","You seemed very in-control.",1441.60999998212,1433.197,1441.60999998212,1441.60999998212,1433.197,1441.60999998212,1,1441.60999998212,0,0,NA,"Click Response","Text_left_X1",2,"object-18",NA,1,"You seemed very in-control.","That was satisfactory.","Task",NA,NA,NA,"SUPPRF16300"
"23",23,1692005596378,"14/08/2023 09:33:16",1692009196378,1,"14/08/2023 11:33:16",140743,17,"task-5vg1",NA,31172407,NA,"complete",NA,"64d9ff71624435bf2a23761d","computer","Desktop or Laptop","Windows 10","Chrome 115.0.0.0","1536x864","1536x707",NA,NA,0,"Feedback Phrases Task - List 2 (Clone with new randomisation)",4,"CDBEAFJGIH",NA,"study_2 (video_feedback and feedback_list_2)","Feedback_ranking_L2_first","Feedback Phrases List 2",10,"Task","Screen 3","izqege",2,"continue","",1766.757,1766.757,1766.757,1766.757,1766.757,1766.757,1,1766.757,0,0,NA,"Fixation Timing","Fixation Cross",1,"object-48",NA,1,"You seemed very in-control.","That was satisfactory.","Task",NA,NA,NA,"SUPPRF16300"
"24",24,1692005597546,"14/08/2023 09:33:17",1692009197546,1,"14/08/2023 11:33:17",140743,17,"task-5vg1",NA,31172407,NA,"complete",NA,"64d9ff71624435bf2a23761d","computer","Desktop or Laptop","Windows 10","Chrome 115.0.0.0","1536x864","1536x707",NA,NA,0,"Feedback Phrases Task - List 2 (Clone with new randomisation)",4,"CDBEAFJGIH",NA,"study_2 (video_feedback and feedback_list_2)","Feedback_ranking_L2_first","Feedback Phrases List 2",11,"Task","Screen 1","113qg5",1,"response","You appear very smart.",1168.55599998808,1166.723,1168.55599998808,1168.55599998808,1166.723,1168.55599998808,1,1168.55599998808,0,0,NA,"Click Response","Text_left_X1",2,"object-18",NA,1,"You appear very smart.","You appeared very confident.","Task",NA,NA,NA,"SUPPRF16300"
"25",25,1692005599311,"14/08/2023 09:33:19",1692009199311,1,"14/08/2023 11:33:19",140743,17,"task-5vg1",NA,31172407,NA,"complete",NA,"64d9ff71624435bf2a23761d","computer","Desktop or Laptop","Windows 10","Chrome 115.0.0.0","1536x864","1536x707",NA,NA,0,"Feedback Phrases Task - List 2 (Clone with new randomisation)",4,"CDBEAFJGIH",NA,"study_2 (video_feedback and feedback_list_2)","Feedback_ranking_L2_first","Feedback Phrases List 2",11,"Task","Screen 3","izqege",2,"continue","",1766.603,1766.603,1766.603,1766.603,1766.603,1766.603,1,1766.603,0,0,NA,"Fixation Timing","Fixation Cross",1,"object-48",NA,1,"You appear very smart.","You appeared very confident.","Task",NA,NA,NA,"SUPPRF16300"
"26",26,1692005602330,"14/08/2023 09:33:22",1692009202330,1,"14/08/2023 11:33:22",140743,17,"task-5vg1",NA,31172407,NA,"complete",NA,"64d9ff71624435bf2a23761d","computer","Desktop or Laptop","Windows 10","Chrome 115.0.0.0","1536x864","1536x707",NA,NA,0,"Feedback Phrases Task - List 2 (Clone with new randomisation)",4,"CDBEAFJGIH",NA,"study_2 (video_feedback and feedback_list_2)","Feedback_ranking_L2_first","Feedback Phrases List 2",12,"Task","Screen 1","113qg5",1,"response","You are really engaging when you speak.",3019.43000000596,3016.59600000001,3019.43000000596,3019.43000000596,3016.59600000001,3019.43000000596,1,3019.43000000596,0,0,NA,"Click Response","Text_left_X1",2,"object-18",NA,1,"You are really engaging when you speak.","Well done!","Task",NA,NA,NA,"SUPPRF16300"
"27",27,1692005604095,"14/08/2023 09:33:24",1692009204095,1,"14/08/2023 11:33:24",140743,17,"task-5vg1",NA,31172407,NA,"complete",NA,"64d9ff71624435bf2a23761d","computer","Desktop or Laptop","Windows 10","Chrome 115.0.0.0","1536x864","1536x707",NA,NA,0,"Feedback Phrases Task - List 2 (Clone with new randomisation)",4,"CDBEAFJGIH",NA,"study_2 (video_feedback and feedback_list_2)","Feedback_ranking_L2_first","Feedback Phrases List 2",12,"Task","Screen 3","izqege",2,"continue","",1766.74099999999,1766.74099999999,1766.74099999999,1766.74099999999,1766.74099999999,1766.74099999999,1,1766.74099999999,0,0,NA,"Fixation Timing","Fixation Cross",1,"object-48",NA,1,"You are really engaging when you speak.","Well done!","Task",NA,NA,NA,"SUPPRF16300"
"28",28,1692005604769,"14/08/2023 09:33:24",1692009204769,1,"14/08/2023 11:33:24",140743,17,"task-5vg1",NA,31172407,NA,"complete",NA,"64d9ff71624435bf2a23761d","computer","Desktop or Laptop","Windows 10","Chrome 115.0.0.0","1536x864","1536x707",NA,NA,0,"Feedback Phrases Task - List 2 (Clone with new randomisation)",4,"CDBEAFJGIH",NA,"study_2 (video_feedback and feedback_list_2)","Feedback_ranking_L2_first","Feedback Phrases List 2",13,"Task","Screen 1","113qg5",1,"response","Well done!",674.992999982118,666.667000000001,674.992999982118,674.992999982118,666.667000000001,674.992999982118,1,674.992999982118,0,0,NA,"Click Response","Text_left_X1",2,"object-18",NA,1,"Well done!","You came across really well.","Task",NA,NA,NA,"SUPPRF16300"
"29",29,1692005606528,"14/08/2023 09:33:26",1692009206528,1,"14/08/2023 11:33:26",140743,17,"task-5vg1",NA,31172407,NA,"complete",NA,"64d9ff71624435bf2a23761d","computer","Desktop or Laptop","Windows 10","Chrome 115.0.0.0","1536x864","1536x707",NA,NA,0,"Feedback Phrases Task - List 2 (Clone with new randomisation)",4,"CDBEAFJGIH",NA,"study_2 (video_feedback and feedback_list_2)","Feedback_ranking_L2_first","Feedback Phrases List 2",13,"Task","Screen 3","izqege",2,"continue","",1766.802,1766.802,1766.802,1766.802,1766.802,1766.802,1,1766.802,0,0,NA,"Fixation Timing","Fixation Cross",1,"object-48",NA,1,"Well done!","You came across really well.","Task",NA,NA,NA,"SUPPRF16300"
"30",30,1692005608204,"14/08/2023 09:33:28",1692009208204,1,"14/08/2023 11:33:28",140743,17,"task-5vg1",NA,31172407,NA,"complete",NA,"64d9ff71624435bf2a23761d","computer","Desktop or Laptop","Windows 10","Chrome 115.0.0.0","1536x864","1536x707",NA,NA,0,"Feedback Phrases Task - List 2 (Clone with new randomisation)",4,"CDBEAFJGIH",NA,"study_2 (video_feedback and feedback_list_2)","Feedback_ranking_L2_first","Feedback Phrases List 2",14,"Task","Screen 1","113qg5",1,"response","That was perfect.",1676.92399998808,1666.49000000001,1676.92399998808,1676.92399998808,1666.49000000001,1676.92399998808,1,1676.92399998808,0,0,NA,"Click Response","Text_right_X2",3,"object-19",NA,1,"You appear very smart.","That was perfect.","Task",NA,NA,NA,"SUPPRF16300"
"31",31,1692005609961,"14/08/2023 09:33:29",1692009209961,1,"14/08/2023 11:33:29",140743,17,"task-5vg1",NA,31172407,NA,"complete",NA,"64d9ff71624435bf2a23761d","computer","Desktop or Laptop","Windows 10","Chrome 115.0.0.0","1536x864","1536x707",NA,NA,0,"Feedback Phrases Task - List 2 (Clone with new randomisation)",4,"CDBEAFJGIH",NA,"study_2 (video_feedback and feedback_list_2)","Feedback_ranking_L2_first","Feedback Phrases List 2",14,"Task","Screen 3","izqege",2,"continue","",1766.639,1766.639,1766.639,1766.639,1766.639,1766.639,1,1766.639,0,0,NA,"Fixation Timing","Fixation Cross",1,"object-48",NA,1,"You appear very smart.","That was perfect.","Task",NA,NA,NA,"SUPPRF16300"
"32",32,1692005610816,"14/08/2023 09:33:30",1692009210816,1,"14/08/2023 11:33:30",140743,17,"task-5vg1",NA,31172407,NA,"complete",NA,"64d9ff71624435bf2a23761d","computer","Desktop or Laptop","Windows 10","Chrome 115.0.0.0","1536x864","1536x707",NA,NA,0,"Feedback Phrases Task - List 2 (Clone with new randomisation)",4,"CDBEAFJGIH",NA,"study_2 (video_feedback and feedback_list_2)","Feedback_ranking_L2_first","Feedback Phrases List 2",15,"Task","Screen 1","113qg5",1,"response","You said all the right things.",855.39499998212,850.013000000006,855.39499998212,855.39499998212,850.013000000006,855.39499998212,1,855.39499998212,0,0,NA,"Click Response","Text_right_X2",3,"object-19",NA,1,"You're very articulate.","You said all the right things.","Task",NA,NA,NA,"SUPPRF16300"
"33",33,1692005612578,"14/08/2023 09:33:32",1692009212578,1,"14/08/2023 11:33:32",140743,17,"task-5vg1",NA,31172407,NA,"complete",NA,"64d9ff71624435bf2a23761d","computer","Desktop or Laptop","Windows 10","Chrome 115.0.0.0","1536x864","1536x707",NA,NA,0,"Feedback Phrases Task - List 2 (Clone with new randomisation)",4,"CDBEAFJGIH",NA,"study_2 (video_feedback and feedback_list_2)","Feedback_ranking_L2_first","Feedback Phrases List 2",15,"Task","Screen 3","izqege",2,"continue","",1766.65699999999,1766.65699999999,1766.65699999999,1766.65699999999,1766.65699999999,1766.65699999999,1,1766.65699999999,0,0,NA,"Fixation Timing","Fixation Cross",1,"object-48",NA,1,"You're very articulate.","You said all the right things.","Task",NA,NA,NA,"SUPPRF16300"
"34",34,1692005613606,"14/08/2023 09:33:33",1692009213606,1,"14/08/2023 11:33:33",140743,17,"task-5vg1",NA,31172407,NA,"complete",NA,"64d9ff71624435bf2a23761d","computer","Desktop or Laptop","Windows 10","Chrome 115.0.0.0","1536x864","1536x707",NA,NA,0,"Feedback Phrases Task - List 2 (Clone with new randomisation)",4,"CDBEAFJGIH",NA,"study_2 (video_feedback and feedback_list_2)","Feedback_ranking_L2_first","Feedback Phrases List 2",16,"Task","Screen 1","113qg5",1,"response","You appeared very confident.",1029.32500000596,1016.63500000001,1029.32500000596,1029.32500000596,1016.63500000001,1029.32500000596,1,1029.32500000596,0,0,NA,"Click Response","Text_left_X1",2,"object-18",NA,1,"You appeared very confident.","Well done!","Task",NA,NA,NA,"SUPPRF16300"
"35",35,1692005615361,"14/08/2023 09:33:35",1692009215361,1,"14/08/2023 11:33:35",140743,17,"task-5vg1",NA,31172407,NA,"complete",NA,"64d9ff71624435bf2a23761d","computer","Desktop or Laptop","Windows 10","Chrome 115.0.0.0","1536x864","1536x707",NA,NA,0,"Feedback Phrases Task - List 2 (Clone with new randomisation)",4,"CDBEAFJGIH",NA,"study_2 (video_feedback and feedback_list_2)","Feedback_ranking_L2_first","Feedback Phrases List 2",16,"Task","Screen 3","izqege",2,"continue","",1766.704,1766.704,1766.704,1766.704,1766.704,1766.704,1,1766.704,0,0,NA,"Fixation Timing","Fixation Cross",1,"object-48",NA,1,"You appeared very confident.","Well done!","Task",NA,NA,NA,"SUPPRF16300"
"36",36,1692005617758,"14/08/2023 09:33:37",1692009217758,1,"14/08/2023 11:33:37",140743,17,"task-5vg1",NA,31172407,NA,"complete",NA,"64d9ff71624435bf2a23761d","computer","Desktop or Laptop","Windows 10","Chrome 115.0.0.0","1536x864","1536x707",NA,NA,0,"Feedback Phrases Task - List 2 (Clone with new randomisation)",4,"CDBEAFJGIH",NA,"study_2 (video_feedback and feedback_list_2)","Feedback_ranking_L2_first","Feedback Phrases List 2",17,"Task","Screen 1","113qg5",1,"response","I could easily picture what you were describing.",2398.086,2383.356,2398.086,2398.086,2383.356,2398.086,1,2398.086,0,0,NA,"Click Response","Text_right_X2",3,"object-19",NA,1,"Well done!","I could easily picture what you were describing.","Task",NA,NA,NA,"SUPPRF16300"
"37",37,1692005619511,"14/08/2023 09:33:39",1692009219511,1,"14/08/2023 11:33:39",140743,17,"task-5vg1",NA,31172407,NA,"complete",NA,"64d9ff71624435bf2a23761d","computer","Desktop or Laptop","Windows 10","Chrome 115.0.0.0","1536x864","1536x707",NA,NA,0,"Feedback Phrases Task - List 2 (Clone with new randomisation)",4,"CDBEAFJGIH",NA,"study_2 (video_feedback and feedback_list_2)","Feedback_ranking_L2_first","Feedback Phrases List 2",17,"Task","Screen 3","izqege",2,"continue","",1766.625,1766.625,1766.625,1766.625,1766.625,1766.625,1,1766.625,0,0,NA,"Fixation Timing","Fixation Cross",1,"object-48",NA,1,"Well done!","I could easily picture what you were describing.","Task",NA,NA,NA,"SUPPRF16300"
"38",38,1692005620508,"14/08/2023 09:33:40",1692009220508,1,"14/08/2023 11:33:40",140743,17,"task-5vg1",NA,31172407,NA,"complete",NA,"64d9ff71624435bf2a23761d","computer","Desktop or Laptop","Windows 10","Chrome 115.0.0.0","1536x864","1536x707",NA,NA,0,"Feedback Phrases Task - List 2 (Clone with new randomisation)",4,"CDBEAFJGIH",NA,"study_2 (video_feedback and feedback_list_2)","Feedback_ranking_L2_first","Feedback Phrases List 2",18,"Task","Screen 1","113qg5",1,"response","You came across really well.",997.904999982115,983.175999999992,997.904999982115,997.904999982115,983.175999999992,997.904999982115,1,997.904999982115,0,0,NA,"Click Response","Text_right_X2",3,"object-19",NA,1,"That was satisfactory.","You came across really well.","Task",NA,NA,NA,"SUPPRF16300"
"39",39,1692005622261,"14/08/2023 09:33:42",1692009222261,1,"14/08/2023 11:33:42",140743,17,"task-5vg1",NA,31172407,NA,"complete",NA,"64d9ff71624435bf2a23761d","computer","Desktop or Laptop","Windows 10","Chrome 115.0.0.0","1536x864","1536x707",NA,NA,0,"Feedback Phrases Task - List 2 (Clone with new randomisation)",4,"CDBEAFJGIH",NA,"study_2 (video_feedback and feedback_list_2)","Feedback_ranking_L2_first","Feedback Phrases List 2",18,"Task","Screen 3","izqege",2,"continue","",1766.641,1766.641,1766.641,1766.641,1766.641,1766.641,1,1766.641,0,0,NA,"Fixation Timing","Fixation Cross",1,"object-48",NA,1,"That was satisfactory.","You came across really well.","Task",NA,NA,NA,"SUPPRF16300"
"40",40,1692005623207,"14/08/2023 09:33:43",1692009223207,1,"14/08/2023 11:33:43",140743,17,"task-5vg1",NA,31172407,NA,"complete",NA,"64d9ff71624435bf2a23761d","computer","Desktop or Laptop","Windows 10","Chrome 115.0.0.0","1536x864","1536x707",NA,NA,0,"Feedback Phrases Task - List 2 (Clone with new randomisation)",4,"CDBEAFJGIH",NA,"study_2 (video_feedback and feedback_list_2)","Feedback_ranking_L2_first","Feedback Phrases List 2",19,"Task","Screen 1","113qg5",1,"response","You're very articulate.",947.188000005961,933.536000000007,947.188000005961,947.188000005961,933.536000000007,947.188000005961,1,947.188000005961,0,0,NA,"Click Response","Text_left_X1",2,"object-18",NA,1,"You're very articulate.","Excellent!","Task",NA,NA,NA,"SUPPRF16300"
"41",41,1692005624961,"14/08/2023 09:33:44",1692009224961,1,"14/08/2023 11:33:44",140743,17,"task-5vg1",NA,31172407,NA,"complete",NA,"64d9ff71624435bf2a23761d","computer","Desktop or Laptop","Windows 10","Chrome 115.0.0.0","1536x864","1536x707",NA,NA,0,"Feedback Phrases Task - List 2 (Clone with new randomisation)",4,"CDBEAFJGIH",NA,"study_2 (video_feedback and feedback_list_2)","Feedback_ranking_L2_first","Feedback Phrases List 2",19,"Task","Screen 3","izqege",2,"continue","",1766.60299999999,1766.60299999999,1766.60299999999,1766.60299999999,1766.60299999999,1766.60299999999,1,1766.60299999999,0,0,NA,"Fixation Timing","Fixation Cross",1,"object-48",NA,1,"You're very articulate.","Excellent!","Task",NA,NA,NA,"SUPPRF16300"
"42",42,1692005625658,"14/08/2023 09:33:45",1692009225658,1,"14/08/2023 11:33:45",140743,17,"task-5vg1",NA,31172407,NA,"complete",NA,"64d9ff71624435bf2a23761d","computer","Desktop or Laptop","Windows 10","Chrome 115.0.0.0","1536x864","1536x707",NA,NA,0,"Feedback Phrases Task - List 2 (Clone with new randomisation)",4,"CDBEAFJGIH",NA,"study_2 (video_feedback and feedback_list_2)","Feedback_ranking_L2_first","Feedback Phrases List 2",20,"Task","Screen 1","113qg5",1,"response","That was decent.",697.348999988084,683.452000000005,697.348999988084,697.348999988084,683.452000000005,697.348999988084,1,697.348999988084,0,0,NA,"Click Response","Text_left_X1",2,"object-18",NA,1,"That was decent.","That was satisfactory.","Task",NA,NA,NA,"SUPPRF16300"
"43",43,1692005627411,"14/08/2023 09:33:47",1692009227411,1,"14/08/2023 11:33:47",140743,17,"task-5vg1",NA,31172407,NA,"complete",NA,"64d9ff71624435bf2a23761d","computer","Desktop or Laptop","Windows 10","Chrome 115.0.0.0","1536x864","1536x707",NA,NA,0,"Feedback Phrases Task - List 2 (Clone with new randomisation)",4,"CDBEAFJGIH",NA,"study_2 (video_feedback and feedback_list_2)","Feedback_ranking_L2_first","Feedback Phrases List 2",20,"Task","Screen 3","izqege",2,"continue","",1766.52899999999,1766.52899999999,1766.52899999999,1766.52899999999,1766.52899999999,1766.52899999999,1,1766.52899999999,0,0,NA,"Fixation Timing","Fixation Cross",1,"object-48",NA,1,"That was decent.","That was satisfactory.","Task",NA,NA,NA,"SUPPRF16300"
"44",44,1692005628086,"14/08/2023 09:33:48",1692009228086,1,"14/08/2023 11:33:48",140743,17,"task-5vg1",NA,31172407,NA,"complete",NA,"64d9ff71624435bf2a23761d","computer","Desktop or Laptop","Windows 10","Chrome 115.0.0.0","1536x864","1536x707",NA,NA,0,"Feedback Phrases Task - List 2 (Clone with new randomisation)",4,"CDBEAFJGIH",NA,"study_2 (video_feedback and feedback_list_2)","Feedback_ranking_L2_first","Feedback Phrases List 2",21,"Task","Screen 1","113qg5",1,"response","That was decent.",675.668000000005,666.767000000007,675.668000000005,675.668000000005,666.767000000007,675.668000000005,1,675.668000000005,0,0,NA,"Click Response","Text_left_X1",2,"object-18",NA,1,"That was decent.","Excellent!","Task",NA,NA,NA,"SUPPRF16300"
"45",45,1692005629845,"14/08/2023 09:33:49",1692009229845,1,"14/08/2023 11:33:49",140743,17,"task-5vg1",NA,31172407,NA,"complete",NA,"64d9ff71624435bf2a23761d","computer","Desktop or Laptop","Windows 10","Chrome 115.0.0.0","1536x864","1536x707",NA,NA,0,"Feedback Phrases Task - List 2 (Clone with new randomisation)",4,"CDBEAFJGIH",NA,"study_2 (video_feedback and feedback_list_2)","Feedback_ranking_L2_first","Feedback Phrases List 2",21,"Task","Screen 3","izqege",2,"continue","",1766.59699999999,1766.59699999999,1766.59699999999,1766.59699999999,1766.59699999999,1766.59699999999,1,1766.59699999999,0,0,NA,"Fixation Timing","Fixation Cross",1,"object-48",NA,1,"That was decent.","Excellent!","Task",NA,NA,NA,"SUPPRF16300"
"46",46,1692005630601,"14/08/2023 09:33:50",1692009230601,1,"14/08/2023 11:33:50",140743,17,"task-5vg1",NA,31172407,NA,"complete",NA,"64d9ff71624435bf2a23761d","computer","Desktop or Laptop","Windows 10","Chrome 115.0.0.0","1536x864","1536x707",NA,NA,0,"Feedback Phrases Task - List 2 (Clone with new randomisation)",4,"CDBEAFJGIH",NA,"study_2 (video_feedback and feedback_list_2)","Feedback_ranking_L2_first","Feedback Phrases List 2",22,"Task","Screen 1","113qg5",1,"response","You seemed very in-control.",756.403999994043,749.985000000001,756.403999994043,756.403999994043,749.985000000001,756.403999994043,1,756.403999994043,0,0,NA,"Click Response","Text_right_X2",3,"object-19",NA,1,"You came across really well.","You seemed very in-control.","Task",NA,NA,NA,"SUPPRF16300"
"47",47,1692005632362,"14/08/2023 09:33:52",1692009232362,1,"14/08/2023 11:33:52",140743,17,"task-5vg1",NA,31172407,NA,"complete",NA,"64d9ff71624435bf2a23761d","computer","Desktop or Laptop","Windows 10","Chrome 115.0.0.0","1536x864","1536x707",NA,NA,0,"Feedback Phrases Task - List 2 (Clone with new randomisation)",4,"CDBEAFJGIH",NA,"study_2 (video_feedback and feedback_list_2)","Feedback_ranking_L2_first","Feedback Phrases List 2",22,"Task","Screen 3","izqege",2,"continue","",1766.629,1766.629,1766.629,1766.629,1766.629,1766.629,1,1766.629,0,0,NA,"Fixation Timing","Fixation Cross",1,"object-48",NA,1,"You came across really well.","You seemed very in-control.","Task",NA,NA,NA,"SUPPRF16300"
"48",48,1692005633251,"14/08/2023 09:33:53",1692009233251,1,"14/08/2023 11:33:53",140743,17,"task-5vg1",NA,31172407,NA,"complete",NA,"64d9ff71624435bf2a23761d","computer","Desktop or Laptop","Windows 10","Chrome 115.0.0.0","1536x864","1536x707",NA,NA,0,"Feedback Phrases Task - List 2 (Clone with new randomisation)",4,"CDBEAFJGIH",NA,"study_2 (video_feedback and feedback_list_2)","Feedback_ranking_L2_first","Feedback Phrases List 2",23,"Task","Screen 1","113qg5",1,"response","Well done!",889.889999988081,883.279999999999,889.889999988081,889.889999988081,883.279999999999,889.889999988081,1,889.889999988081,0,0,NA,"Click Response","Text_right_X2",3,"object-19",NA,1,"That was decent.","Well done!","Task",NA,NA,NA,"SUPPRF16300"
"49",49,1692005635012,"14/08/2023 09:33:55",1692009235012,1,"14/08/2023 11:33:55",140743,17,"task-5vg1",NA,31172407,NA,"complete",NA,"64d9ff71624435bf2a23761d","computer","Desktop or Laptop","Windows 10","Chrome 115.0.0.0","1536x864","1536x707",NA,NA,0,"Feedback Phrases Task - List 2 (Clone with new randomisation)",4,"CDBEAFJGIH",NA,"study_2 (video_feedback and feedback_list_2)","Feedback_ranking_L2_first","Feedback Phrases List 2",23,"Task","Screen 3","izqege",2,"continue","",1766.625,1766.625,1766.625,1766.625,1766.625,1766.625,1,1766.625,0,0,NA,"Fixation Timing","Fixation Cross",1,"object-48",NA,1,"That was decent.","Well done!","Task",NA,NA,NA,"SUPPRF16300"
"50",50,1692005636514,"14/08/2023 09:33:56",1692009236514,1,"14/08/2023 11:33:56",140743,17,"task-5vg1",NA,31172407,NA,"complete",NA,"64d9ff71624435bf2a23761d","computer","Desktop or Laptop","Windows 10","Chrome 115.0.0.0","1536x864","1536x707",NA,NA,0,"Feedback Phrases Task - List 2 (Clone with new randomisation)",4,"CDBEAFJGIH",NA,"study_2 (video_feedback and feedback_list_2)","Feedback_ranking_L2_first","Feedback Phrases List 2",24,"Task","Screen 1","113qg5",1,"response","You came across really well.",1503.285,1499.96800000001,1503.285,1503.285,1499.96800000001,1503.285,1,1503.285,0,0,NA,"Click Response","Text_right_X2",3,"object-19",NA,1,"You're very articulate.","You came across really well.","Task",NA,NA,NA,"SUPPRF16300"
"51",51,1692005638278,"14/08/2023 09:33:58",1692009238278,1,"14/08/2023 11:33:58",140743,17,"task-5vg1",NA,31172407,NA,"complete",NA,"64d9ff71624435bf2a23761d","computer","Desktop or Laptop","Windows 10","Chrome 115.0.0.0","1536x864","1536x707",NA,NA,0,"Feedback Phrases Task - List 2 (Clone with new randomisation)",4,"CDBEAFJGIH",NA,"study_2 (video_feedback and feedback_list_2)","Feedback_ranking_L2_first","Feedback Phrases List 2",24,"Task","Screen 3","izqege",2,"continue","",1766.734,1766.734,1766.734,1766.734,1766.734,1766.734,1,1766.734,0,0,NA,"Fixation Timing","Fixation Cross",1,"object-48",NA,1,"You're very articulate.","You came across really well.","Task",NA,NA,NA,"SUPPRF16300"
"52",52,1692005638805,"14/08/2023 09:33:58",1692009238805,1,"14/08/2023 11:33:58",140743,17,"task-5vg1",NA,31172407,NA,"complete",NA,"64d9ff71624435bf2a23761d","computer","Desktop or Laptop","Windows 10","Chrome 115.0.0.0","1536x864","1536x707",NA,NA,0,"Feedback Phrases Task - List 2 (Clone with new randomisation)",4,"CDBEAFJGIH",NA,"study_2 (video_feedback and feedback_list_2)","Feedback_ranking_L2_first","Feedback Phrases List 2",25,"Task","Screen 1","113qg5",1,"response","You're very articulate.",527.282999988078,516.747999999992,527.282999988078,527.282999988078,516.747999999992,527.282999988078,1,527.282999988078,0,0,NA,"Click Response","Text_right_X2",3,"object-19",NA,1,"You appeared very confident.","You're very articulate.","Task",NA,NA,NA,"SUPPRF16300"
"53",53,1692005640562,"14/08/2023 09:34:00",1692009240562,1,"14/08/2023 11:34:00",140743,17,"task-5vg1",NA,31172407,NA,"complete",NA,"64d9ff71624435bf2a23761d","computer","Desktop or Laptop","Windows 10","Chrome 115.0.0.0","1536x864","1536x707",NA,NA,0,"Feedback Phrases Task - List 2 (Clone with new randomisation)",4,"CDBEAFJGIH",NA,"study_2 (video_feedback and feedback_list_2)","Feedback_ranking_L2_first","Feedback Phrases List 2",25,"Task","Screen 3","izqege",2,"continue","",1766.618,1766.618,1766.618,1766.618,1766.618,1766.618,1,1766.618,0,0,NA,"Fixation Timing","Fixation Cross",1,"object-48",NA,1,"You appeared very confident.","You're very articulate.","Task",NA,NA,NA,"SUPPRF16300"
"54",54,1692005641328,"14/08/2023 09:34:01",1692009241328,1,"14/08/2023 11:34:01",140743,17,"task-5vg1",NA,31172407,NA,"complete",NA,"64d9ff71624435bf2a23761d","computer","Desktop or Laptop","Windows 10","Chrome 115.0.0.0","1536x864","1536x707",NA,NA,0,"Feedback Phrases Task - List 2 (Clone with new randomisation)",4,"CDBEAFJGIH",NA,"study_2 (video_feedback and feedback_list_2)","Feedback_ranking_L2_first","Feedback Phrases List 2",26,"Task","Screen 1","113qg5",1,"response","Your description was very insightful.",766.331999999995,749.826000000001,766.331999999995,766.331999999995,749.826000000001,766.331999999995,1,766.331999999995,0,0,NA,"Click Response","Text_right_X2",3,"object-19",NA,1,"You are really engaging when you speak.","Your description was very insightful.","Task",NA,NA,NA,"SUPPRF16300"
"55",55,1692005643078,"14/08/2023 09:34:03",1692009243078,1,"14/08/2023 11:34:03",140743,17,"task-5vg1",NA,31172407,NA,"complete",NA,"64d9ff71624435bf2a23761d","computer","Desktop or Laptop","Windows 10","Chrome 115.0.0.0","1536x864","1536x707",NA,NA,0,"Feedback Phrases Task - List 2 (Clone with new randomisation)",4,"CDBEAFJGIH",NA,"study_2 (video_feedback and feedback_list_2)","Feedback_ranking_L2_first","Feedback Phrases List 2",26,"Task","Screen 3","izqege",2,"continue","",1766.753,1766.753,1766.753,1766.753,1766.753,1766.753,1,1766.753,0,0,NA,"Fixation Timing","Fixation Cross",1,"object-48",NA,1,"You are really engaging when you speak.","Your description was very insightful.","Task",NA,NA,NA,"SUPPRF16300"
"56",56,1692005643833,"14/08/2023 09:34:03",1692009243833,1,"14/08/2023 11:34:03",140743,17,"task-5vg1",NA,31172407,NA,"complete",NA,"64d9ff71624435bf2a23761d","computer","Desktop or Laptop","Windows 10","Chrome 115.0.0.0","1536x864","1536x707",NA,NA,0,"Feedback Phrases Task - List 2 (Clone with new randomisation)",4,"CDBEAFJGIH",NA,"study_2 (video_feedback and feedback_list_2)","Feedback_ranking_L2_first","Feedback Phrases List 2",27,"Task","Screen 1","113qg5",1,"response","I could easily picture what you were describing.",755.038000005967,750.165000000008,755.038000005967,755.038000005967,750.165000000008,755.038000005967,1,755.038000005967,0,0,NA,"Click Response","Text_right_X2",3,"object-19",NA,1,"You came across really well.","I could easily picture what you were describing.","Task",NA,NA,NA,"SUPPRF16300"
"57",57,1692005645595,"14/08/2023 09:34:05",1692009245595,1,"14/08/2023 11:34:05",140743,17,"task-5vg1",NA,31172407,NA,"complete",NA,"64d9ff71624435bf2a23761d","computer","Desktop or Laptop","Windows 10","Chrome 115.0.0.0","1536x864","1536x707",NA,NA,0,"Feedback Phrases Task - List 2 (Clone with new randomisation)",4,"CDBEAFJGIH",NA,"study_2 (video_feedback and feedback_list_2)","Feedback_ranking_L2_first","Feedback Phrases List 2",27,"Task","Screen 3","izqege",2,"continue","",1766.61899999999,1766.61899999999,1766.61899999999,1766.61899999999,1766.61899999999,1766.61899999999,1,1766.61899999999,0,0,NA,"Fixation Timing","Fixation Cross",1,"object-48",NA,1,"You came across really well.","I could easily picture what you were describing.","Task",NA,NA,NA,"SUPPRF16300"
"58",58,1692005646155,"14/08/2023 09:34:06",1692009246155,1,"14/08/2023 11:34:06",140743,17,"task-5vg1",NA,31172407,NA,"complete",NA,"64d9ff71624435bf2a23761d","computer","Desktop or Laptop","Windows 10","Chrome 115.0.0.0","1536x864","1536x707",NA,NA,0,"Feedback Phrases Task - List 2 (Clone with new randomisation)",4,"CDBEAFJGIH",NA,"study_2 (video_feedback and feedback_list_2)","Feedback_ranking_L2_first","Feedback Phrases List 2",28,"Task","Screen 1","113qg5",1,"response","You appear very smart.",560.053999988086,549.973000000013,560.053999988086,560.053999988086,549.973000000013,560.053999988086,1,560.053999988086,0,0,NA,"Click Response","Text_right_X2",3,"object-19",NA,1,"You said all the right things.","You appear very smart.","Task",NA,NA,NA,"SUPPRF16300"
"59",59,1692005647912,"14/08/2023 09:34:07",1692009247912,1,"14/08/2023 11:34:07",140743,17,"task-5vg1",NA,31172407,NA,"complete",NA,"64d9ff71624435bf2a23761d","computer","Desktop or Laptop","Windows 10","Chrome 115.0.0.0","1536x864","1536x707",NA,NA,0,"Feedback Phrases Task - List 2 (Clone with new randomisation)",4,"CDBEAFJGIH",NA,"study_2 (video_feedback and feedback_list_2)","Feedback_ranking_L2_first","Feedback Phrases List 2",28,"Task","Screen 3","izqege",2,"continue","",1766.552,1766.552,1766.552,1766.552,1766.552,1766.552,1,1766.552,0,0,NA,"Fixation Timing","Fixation Cross",1,"object-48",NA,1,"You said all the right things.","You appear very smart.","Task",NA,NA,NA,"SUPPRF16300"
"60",60,1692005649681,"14/08/2023 09:34:09",1692009249681,1,"14/08/2023 11:34:09",140743,17,"task-5vg1",NA,31172407,NA,"complete",NA,"64d9ff71624435bf2a23761d","computer","Desktop or Laptop","Windows 10","Chrome 115.0.0.0","1536x864","1536x707",NA,NA,0,"Feedback Phrases Task - List 2 (Clone with new randomisation)",4,"CDBEAFJGIH",NA,"study_2 (video_feedback and feedback_list_2)","Feedback_ranking_L2_first","Feedback Phrases List 2",29,"Task","Screen 1","113qg5",1,"response","You are really engaging when you speak.",1770.329,1766.681,1770.329,1770.329,1766.681,1770.329,1,1770.329,0,0,NA,"Click Response","Text_left_X1",2,"object-18",NA,1,"You are really engaging when you speak.","I could easily picture what you were describing.","Task",NA,NA,NA,"SUPPRF16300"
"61",61,1692005651445,"14/08/2023 09:34:11",1692009251445,1,"14/08/2023 11:34:11",140743,17,"task-5vg1",NA,31172407,NA,"complete",NA,"64d9ff71624435bf2a23761d","computer","Desktop or Laptop","Windows 10","Chrome 115.0.0.0","1536x864","1536x707",NA,NA,0,"Feedback Phrases Task - List 2 (Clone with new randomisation)",4,"CDBEAFJGIH",NA,"study_2 (video_feedback and feedback_list_2)","Feedback_ranking_L2_first","Feedback Phrases List 2",29,"Task","Screen 3","izqege",2,"continue","",1766.523,1766.523,1766.523,1766.523,1766.523,1766.523,1,1766.523,0,0,NA,"Fixation Timing","Fixation Cross",1,"object-48",NA,1,"You are really engaging when you speak.","I could easily picture what you were describing.","Task",NA,NA,NA,"SUPPRF16300"
"62",62,1692005651631,"14/08/2023 09:34:11",1692009251631,1,"14/08/2023 11:34:11",140743,17,"task-5vg1",NA,31172407,NA,"complete",NA,"64d9ff71624435bf2a23761d","computer","Desktop or Laptop","Windows 10","Chrome 115.0.0.0","1536x864","1536x707",NA,NA,0,"Feedback Phrases Task - List 2 (Clone with new randomisation)",4,"CDBEAFJGIH",NA,"study_2 (video_feedback and feedback_list_2)","Feedback_ranking_L2_first","Feedback Phrases List 2",30,"Task","Screen 1","113qg5",1,"response","That was satisfactory.",187.22499999404,183.680999999997,187.22499999404,187.22499999404,183.680999999997,187.22499999404,1,187.22499999404,0,0,NA,"Click Response","Text_left_X1",2,"object-18",NA,1,"That was satisfactory.","Your description was very insightful.","Task",NA,NA,NA,"SUPPRF16300"
"63",63,1692005653395,"14/08/2023 09:34:13",1692009253395,1,"14/08/2023 11:34:13",140743,17,"task-5vg1",NA,31172407,NA,"complete",NA,"64d9ff71624435bf2a23761d","computer","Desktop or Laptop","Windows 10","Chrome 115.0.0.0","1536x864","1536x707",NA,NA,0,"Feedback Phrases Task - List 2 (Clone with new randomisation)",4,"CDBEAFJGIH",NA,"study_2 (video_feedback and feedback_list_2)","Feedback_ranking_L2_first","Feedback Phrases List 2",30,"Task","Screen 3","izqege",2,"continue","",1766.474,1766.474,1766.474,1766.474,1766.474,1766.474,1,1766.474,0,0,NA,"Fixation Timing","Fixation Cross",1,"object-48",NA,1,"That was satisfactory.","Your description was very insightful.","Task",NA,NA,NA,"SUPPRF16300"
"64",64,1692005655339,"14/08/2023 09:34:15",1692009255339,1,"14/08/2023 11:34:15",140743,17,"task-5vg1",NA,31172407,NA,"complete",NA,"64d9ff71624435bf2a23761d","computer","Desktop or Laptop","Windows 10","Chrome 115.0.0.0","1536x864","1536x707",NA,NA,0,"Feedback Phrases Task - List 2 (Clone with new randomisation)",4,"CDBEAFJGIH",NA,"study_2 (video_feedback and feedback_list_2)","Feedback_ranking_L2_first","Feedback Phrases List 2",31,"Task","Screen 1","113qg5",1,"response","That was perfect.",1944.56999999404,1933.545,1944.56999999404,1944.56999999404,1933.545,1944.56999999404,1,1944.56999999404,0,0,NA,"Click Response","Text_right_X2",3,"object-19",NA,1,"Excellent!","That was perfect.","Task",NA,NA,NA,"SUPPRF16300"
"65",65,1692005657095,"14/08/2023 09:34:17",1692009257095,1,"14/08/2023 11:34:17",140743,17,"task-5vg1",NA,31172407,NA,"complete",NA,"64d9ff71624435bf2a23761d","computer","Desktop or Laptop","Windows 10","Chrome 115.0.0.0","1536x864","1536x707",NA,NA,0,"Feedback Phrases Task - List 2 (Clone with new randomisation)",4,"CDBEAFJGIH",NA,"study_2 (video_feedback and feedback_list_2)","Feedback_ranking_L2_first","Feedback Phrases List 2",31,"Task","Screen 3","izqege",2,"continue","",1766.307,1766.307,1766.307,1766.307,1766.307,1766.307,1,1766.307,0,0,NA,"Fixation Timing","Fixation Cross",1,"object-48",NA,1,"Excellent!","That was perfect.","Task",NA,NA,NA,"SUPPRF16300"
"66",66,1692005658317,"14/08/2023 09:34:18",1692009258317,1,"14/08/2023 11:34:18",140743,17,"task-5vg1",NA,31172407,NA,"complete",NA,"64d9ff71624435bf2a23761d","computer","Desktop or Laptop","Windows 10","Chrome 115.0.0.0","1536x864","1536x707",NA,NA,0,"Feedback Phrases Task - List 2 (Clone with new randomisation)",4,"CDBEAFJGIH",NA,"study_2 (video_feedback and feedback_list_2)","Feedback_ranking_L2_first","Feedback Phrases List 2",32,"Task","Screen 1","113qg5",1,"response","Your description was very insightful.",1222.31799998808,1216.802,1222.31799998808,1222.31799998808,1216.802,1222.31799998808,1,1222.31799998808,0,0,NA,"Click Response","Text_right_X2",3,"object-19",NA,1,"That was decent.","Your description was very insightful.","Task",NA,NA,NA,"SUPPRF16300"
"67",67,1692005660078,"14/08/2023 09:34:20",1692009260078,1,"14/08/2023 11:34:20",140743,17,"task-5vg1",NA,31172407,NA,"complete",NA,"64d9ff71624435bf2a23761d","computer","Desktop or Laptop","Windows 10","Chrome 115.0.0.0","1536x864","1536x707",NA,NA,0,"Feedback Phrases Task - List 2 (Clone with new randomisation)",4,"CDBEAFJGIH",NA,"study_2 (video_feedback and feedback_list_2)","Feedback_ranking_L2_first","Feedback Phrases List 2",32,"Task","Screen 3","izqege",2,"continue","",1766.72600000001,1766.72600000001,1766.72600000001,1766.72600000001,1766.72600000001,1766.72600000001,1,1766.72600000001,0,0,NA,"Fixation Timing","Fixation Cross",1,"object-48",NA,1,"That was decent.","Your description was very insightful.","Task",NA,NA,NA,"SUPPRF16300"
"68",68,1692005660802,"14/08/2023 09:34:20",1692009260802,1,"14/08/2023 11:34:20",140743,17,"task-5vg1",NA,31172407,NA,"complete",NA,"64d9ff71624435bf2a23761d","computer","Desktop or Laptop","Windows 10","Chrome 115.0.0.0","1536x864","1536x707",NA,NA,0,"Feedback Phrases Task - List 2 (Clone with new randomisation)",4,"CDBEAFJGIH",NA,"study_2 (video_feedback and feedback_list_2)","Feedback_ranking_L2_first","Feedback Phrases List 2",33,"Task","Screen 1","113qg5",1,"response","You are really engaging when you speak.",724.490000005957,716.603999999992,724.490000005957,724.490000005957,716.603999999992,724.490000005957,1,724.490000005957,0,0,NA,"Click Response","Text_right_X2",3,"object-19",NA,1,"That was perfect.","You are really engaging when you speak.","Task",NA,NA,NA,"SUPPRF16300"
"69",69,1692005662561,"14/08/2023 09:34:22",1692009262561,1,"14/08/2023 11:34:22",140743,17,"task-5vg1",NA,31172407,NA,"complete",NA,"64d9ff71624435bf2a23761d","computer","Desktop or Laptop","Windows 10","Chrome 115.0.0.0","1536x864","1536x707",NA,NA,0,"Feedback Phrases Task - List 2 (Clone with new randomisation)",4,"CDBEAFJGIH",NA,"study_2 (video_feedback and feedback_list_2)","Feedback_ranking_L2_first","Feedback Phrases List 2",33,"Task","Screen 3","izqege",2,"continue","",1766.526,1766.526,1766.526,1766.526,1766.526,1766.526,1,1766.526,0,0,NA,"Fixation Timing","Fixation Cross",1,"object-48",NA,1,"That was perfect.","You are really engaging when you speak.","Task",NA,NA,NA,"SUPPRF16300"
"70",70,1692005663345,"14/08/2023 09:34:23",1692009263345,1,"14/08/2023 11:34:23",140743,17,"task-5vg1",NA,31172407,NA,"complete",NA,"64d9ff71624435bf2a23761d","computer","Desktop or Laptop","Windows 10","Chrome 115.0.0.0","1536x864","1536x707",NA,NA,0,"Feedback Phrases Task - List 2 (Clone with new randomisation)",4,"CDBEAFJGIH",NA,"study_2 (video_feedback and feedback_list_2)","Feedback_ranking_L2_first","Feedback Phrases List 2",34,"Task","Screen 1","113qg5",1,"response","You appeared very confident.",783.475000000006,766.789000000004,783.475000000006,783.475000000006,766.789000000004,783.475000000006,1,783.475000000006,0,0,NA,"Click Response","Text_left_X1",2,"object-18",NA,1,"You appeared very confident.","That was satisfactory.","Task",NA,NA,NA,"SUPPRF16300"
"71",71,1692005665095,"14/08/2023 09:34:25",1692009265095,1,"14/08/2023 11:34:25",140743,17,"task-5vg1",NA,31172407,NA,"complete",NA,"64d9ff71624435bf2a23761d","computer","Desktop or Laptop","Windows 10","Chrome 115.0.0.0","1536x864","1536x707",NA,NA,0,"Feedback Phrases Task - List 2 (Clone with new randomisation)",4,"CDBEAFJGIH",NA,"study_2 (video_feedback and feedback_list_2)","Feedback_ranking_L2_first","Feedback Phrases List 2",34,"Task","Screen 3","izqege",2,"continue","",1766.66900000001,1766.66900000001,1766.66900000001,1766.66900000001,1766.66900000001,1766.66900000001,1,1766.66900000001,0,0,NA,"Fixation Timing","Fixation Cross",1,"object-48",NA,1,"You appeared very confident.","That was satisfactory.","Task",NA,NA,NA,"SUPPRF16300"
"72",72,1692005665670,"14/08/2023 09:34:25",1692009265670,1,"14/08/2023 11:34:25",140743,17,"task-5vg1",NA,31172407,NA,"complete",NA,"64d9ff71624435bf2a23761d","computer","Desktop or Laptop","Windows 10","Chrome 115.0.0.0","1536x864","1536x707",NA,NA,0,"Feedback Phrases Task - List 2 (Clone with new randomisation)",4,"CDBEAFJGIH",NA,"study_2 (video_feedback and feedback_list_2)","Feedback_ranking_L2_first","Feedback Phrases List 2",35,"Task","Screen 1","113qg5",1,"response","Your description was very insightful.",575.902000005954,566.619999999995,575.902000005954,575.902000005954,566.619999999995,575.902000005954,1,575.902000005954,0,0,NA,"Click Response","Text_left_X1",2,"object-18",NA,1,"Your description was very insightful.","Excellent!","Task",NA,NA,NA,"SUPPRF16300"
"73",73,1692005667428,"14/08/2023 09:34:27",1692009267428,1,"14/08/2023 11:34:27",140743,17,"task-5vg1",NA,31172407,NA,"complete",NA,"64d9ff71624435bf2a23761d","computer","Desktop or Laptop","Windows 10","Chrome 115.0.0.0","1536x864","1536x707",NA,NA,0,"Feedback Phrases Task - List 2 (Clone with new randomisation)",4,"CDBEAFJGIH",NA,"study_2 (video_feedback and feedback_list_2)","Feedback_ranking_L2_first","Feedback Phrases List 2",35,"Task","Screen 3","izqege",2,"continue","",1766.817,1766.817,1766.817,1766.817,1766.817,1766.817,1,1766.817,0,0,NA,"Fixation Timing","Fixation Cross",1,"object-48",NA,1,"Your description was very insightful.","Excellent!","Task",NA,NA,NA,"SUPPRF16300"
"74",74,1692005668272,"14/08/2023 09:34:28",1692009268272,1,"14/08/2023 11:34:28",140743,17,"task-5vg1",NA,31172407,NA,"complete",NA,"64d9ff71624435bf2a23761d","computer","Desktop or Laptop","Windows 10","Chrome 115.0.0.0","1536x864","1536x707",NA,NA,0,"Feedback Phrases Task - List 2 (Clone with new randomisation)",4,"CDBEAFJGIH",NA,"study_2 (video_feedback and feedback_list_2)","Feedback_ranking_L2_first","Feedback Phrases List 2",36,"Task","Screen 1","113qg5",1,"response","You seemed very in-control.",844.465000005963,833.04800000001,844.465000005963,844.465000005963,833.04800000001,844.465000005963,1,844.465000005963,0,0,NA,"Click Response","Text_right_X2",3,"object-19",NA,1,"Excellent!","You seemed very in-control.","Task",NA,NA,NA,"SUPPRF16300"
"75",75,1692005670028,"14/08/2023 09:34:30",1692009270028,1,"14/08/2023 11:34:30",140743,17,"task-5vg1",NA,31172407,NA,"complete",NA,"64d9ff71624435bf2a23761d","computer","Desktop or Laptop","Windows 10","Chrome 115.0.0.0","1536x864","1536x707",NA,NA,0,"Feedback Phrases Task - List 2 (Clone with new randomisation)",4,"CDBEAFJGIH",NA,"study_2 (video_feedback and feedback_list_2)","Feedback_ranking_L2_first","Feedback Phrases List 2",36,"Task","Screen 3","izqege",2,"continue","",1766.785,1766.785,1766.785,1766.785,1766.785,1766.785,1,1766.785,0,0,NA,"Fixation Timing","Fixation Cross",1,"object-48",NA,1,"Excellent!","You seemed very in-control.","Task",NA,NA,NA,"SUPPRF16300"
"76",76,1692005670722,"14/08/2023 09:34:30",1692009270722,1,"14/08/2023 11:34:30",140743,17,"task-5vg1",NA,31172407,NA,"complete",NA,"64d9ff71624435bf2a23761d","computer","Desktop or Laptop","Windows 10","Chrome 115.0.0.0","1536x864","1536x707",NA,NA,0,"Feedback Phrases Task - List 2 (Clone with new randomisation)",4,"CDBEAFJGIH",NA,"study_2 (video_feedback and feedback_list_2)","Feedback_ranking_L2_first","Feedback Phrases List 2",37,"Task","Screen 1","113qg5",1,"response","You did what was asked of you.",694.63200000595,683.280999999988,694.63200000595,694.63200000595,683.280999999988,694.63200000595,1,694.63200000595,0,0,NA,"Click Response","Text_left_X1",2,"object-18",NA,1,"You did what was asked of you.","Well done!","Task",NA,NA,NA,"SUPPRF16300"
"77",77,1692005672478,"14/08/2023 09:34:32",1692009272478,1,"14/08/2023 11:34:32",140743,17,"task-5vg1",NA,31172407,NA,"complete",NA,"64d9ff71624435bf2a23761d","computer","Desktop or Laptop","Windows 10","Chrome 115.0.0.0","1536x864","1536x707",NA,NA,0,"Feedback Phrases Task - List 2 (Clone with new randomisation)",4,"CDBEAFJGIH",NA,"study_2 (video_feedback and feedback_list_2)","Feedback_ranking_L2_first","Feedback Phrases List 2",37,"Task","Screen 3","izqege",2,"continue","",1766.85200000001,1766.85200000001,1766.85200000001,1766.85200000001,1766.85200000001,1766.85200000001,1,1766.85200000001,0,0,NA,"Fixation Timing","Fixation Cross",1,"object-48",NA,1,"You did what was asked of you.","Well done!","Task",NA,NA,NA,"SUPPRF16300"
"78",78,1692005674791,"14/08/2023 09:34:34",1692009274791,1,"14/08/2023 11:34:34",140743,17,"task-5vg1",NA,31172407,NA,"complete",NA,"64d9ff71624435bf2a23761d","computer","Desktop or Laptop","Windows 10","Chrome 115.0.0.0","1536x864","1536x707",NA,NA,0,"Feedback Phrases Task - List 2 (Clone with new randomisation)",4,"CDBEAFJGIH",NA,"study_2 (video_feedback and feedback_list_2)","Feedback_ranking_L2_first","Feedback Phrases List 2",38,"Task","Screen 1","113qg5",1,"response","You appear very smart.",2312.99900000595,2299.87,2312.99900000595,2312.99900000595,2299.87,2312.99900000595,1,2312.99900000595,0,0,NA,"Click Response","Text_right_X2",3,"object-19",NA,1,"That was decent.","You appear very smart.","Task",NA,NA,NA,"SUPPRF16300"
"79",79,1692005676545,"14/08/2023 09:34:36",1692009276545,1,"14/08/2023 11:34:36",140743,17,"task-5vg1",NA,31172407,NA,"complete",NA,"64d9ff71624435bf2a23761d","computer","Desktop or Laptop","Windows 10","Chrome 115.0.0.0","1536x864","1536x707",NA,NA,0,"Feedback Phrases Task - List 2 (Clone with new randomisation)",4,"CDBEAFJGIH",NA,"study_2 (video_feedback and feedback_list_2)","Feedback_ranking_L2_first","Feedback Phrases List 2",38,"Task","Screen 3","izqege",2,"continue","",1766.64299999998,1766.64299999998,1766.64299999998,1766.64299999998,1766.64299999998,1766.64299999998,1,1766.64299999998,0,0,NA,"Fixation Timing","Fixation Cross",1,"object-48",NA,1,"That was decent.","You appear very smart.","Task",NA,NA,NA,"SUPPRF16300"
"80",80,1692005678238,"14/08/2023 09:34:38",1692009278238,1,"14/08/2023 11:34:38",140743,17,"task-5vg1",NA,31172407,NA,"complete",NA,"64d9ff71624435bf2a23761d","computer","Desktop or Laptop","Windows 10","Chrome 115.0.0.0","1536x864","1536x707",NA,NA,0,"Feedback Phrases Task - List 2 (Clone with new randomisation)",4,"CDBEAFJGIH",NA,"study_2 (video_feedback and feedback_list_2)","Feedback_ranking_L2_first","Feedback Phrases List 2",39,"Task","Screen 1","113qg5",1,"response","That was perfect.",1693.98600000597,1683.36300000001,1693.98600000597,1693.98600000597,1683.36300000001,1693.98600000597,1,1693.98600000597,0,0,NA,"Click Response","Text_right_X2",3,"object-19",NA,1,"You came across really well.","That was perfect.","Task",NA,NA,NA,"SUPPRF16300"
"81",81,1692005679995,"14/08/2023 09:34:39",1692009279995,1,"14/08/2023 11:34:39",140743,17,"task-5vg1",NA,31172407,NA,"complete",NA,"64d9ff71624435bf2a23761d","computer","Desktop or Laptop","Windows 10","Chrome 115.0.0.0","1536x864","1536x707",NA,NA,0,"Feedback Phrases Task - List 2 (Clone with new randomisation)",4,"CDBEAFJGIH",NA,"study_2 (video_feedback and feedback_list_2)","Feedback_ranking_L2_first","Feedback Phrases List 2",39,"Task","Screen 3","izqege",2,"continue","",1766.63200000001,1766.63200000001,1766.63200000001,1766.63200000001,1766.63200000001,1766.63200000001,1,1766.63200000001,0,0,NA,"Fixation Timing","Fixation Cross",1,"object-48",NA,1,"You came across really well.","That was perfect.","Task",NA,NA,NA,"SUPPRF16300"
"82",82,1692005681309,"14/08/2023 09:34:41",1692009281309,1,"14/08/2023 11:34:41",140743,17,"task-5vg1",NA,31172407,NA,"complete",NA,"64d9ff71624435bf2a23761d","computer","Desktop or Laptop","Windows 10","Chrome 115.0.0.0","1536x864","1536x707",NA,NA,0,"Feedback Phrases Task - List 2 (Clone with new randomisation)",4,"CDBEAFJGIH",NA,"study_2 (video_feedback and feedback_list_2)","Feedback_ranking_L2_first","Feedback Phrases List 2",40,"Task","Screen 1","113qg5",1,"response","You are really engaging when you speak.",1314.79099998806,1300.07399999999,1314.79099998806,1314.79099998806,1300.07399999999,1314.79099998806,1,1314.79099998806,0,0,NA,"Click Response","Text_right_X2",3,"object-19",NA,1,"That was decent.","You are really engaging when you speak.","Task",NA,NA,NA,"SUPPRF16300"
"83",83,1692005683062,"14/08/2023 09:34:43",1692009283062,1,"14/08/2023 11:34:43",140743,17,"task-5vg1",NA,31172407,NA,"complete",NA,"64d9ff71624435bf2a23761d","computer","Desktop or Laptop","Windows 10","Chrome 115.0.0.0","1536x864","1536x707",NA,NA,0,"Feedback Phrases Task - List 2 (Clone with new randomisation)",4,"CDBEAFJGIH",NA,"study_2 (video_feedback and feedback_list_2)","Feedback_ranking_L2_first","Feedback Phrases List 2",40,"Task","Screen 3","izqege",2,"continue","",1766.45600000001,1766.45600000001,1766.45600000001,1766.45600000001,1766.45600000001,1766.45600000001,1,1766.45600000001,0,0,NA,"Fixation Timing","Fixation Cross",1,"object-48",NA,1,"That was decent.","You are really engaging when you speak.","Task",NA,NA,NA,"SUPPRF16300"
"84",84,1692005695368,"14/08/2023 09:34:55",1692009295368,1,"14/08/2023 11:34:55",140743,17,"task-5vg1",NA,31172407,NA,"complete",NA,"64d9ff71624435bf2a23761d","computer","Desktop or Laptop","Windows 10","Chrome 115.0.0.0","1536x864","1536x707",NA,NA,0,"Feedback Phrases Task - List 2 (Clone with new randomisation)",4,"CDBEAFJGIH",NA,"study_2 (video_feedback and feedback_list_2)","Feedback_ranking_L2_first","Feedback Phrases List 2",41,"Task","Screen 1","113qg5",1,"response","Your description was very insightful.",12305.660999994,12300.079,12305.660999994,12305.660999994,12300.079,12305.660999994,1,12305.660999994,0,0,NA,"Click Response","Text_left_X1",2,"object-18",NA,1,"Your description was very insightful.","Well done!","Task",NA,NA,NA,"SUPPRF16300"
"85",85,1692005697128,"14/08/2023 09:34:57",1692009297128,1,"14/08/2023 11:34:57",140743,17,"task-5vg1",NA,31172407,NA,"complete",NA,"64d9ff71624435bf2a23761d","computer","Desktop or Laptop","Windows 10","Chrome 115.0.0.0","1536x864","1536x707",NA,NA,0,"Feedback Phrases Task - List 2 (Clone with new randomisation)",4,"CDBEAFJGIH",NA,"study_2 (video_feedback and feedback_list_2)","Feedback_ranking_L2_first","Feedback Phrases List 2",41,"Task","Screen 3","izqege",2,"continue","",1766.747,1766.747,1766.747,1766.747,1766.747,1766.747,1,1766.747,0,0,NA,"Fixation Timing","Fixation Cross",1,"object-48",NA,1,"Your description was very insightful.","Well done!","Task",NA,NA,NA,"SUPPRF16300"
"86",86,1692005697929,"14/08/2023 09:34:57",1692009297929,1,"14/08/2023 11:34:57",140743,17,"task-5vg1",NA,31172407,NA,"complete",NA,"64d9ff71624435bf2a23761d","computer","Desktop or Laptop","Windows 10","Chrome 115.0.0.0","1536x864","1536x707",NA,NA,0,"Feedback Phrases Task - List 2 (Clone with new randomisation)",4,"CDBEAFJGIH",NA,"study_2 (video_feedback and feedback_list_2)","Feedback_ranking_L2_first","Feedback Phrases List 2",42,"Task","Screen 1","113qg5",1,"response","You are really engaging when you speak.",801.034999982105,799.788,801.034999982105,801.034999982105,799.788,801.034999982105,1,801.034999982105,0,0,NA,"Click Response","Text_right_X2",3,"object-19",NA,1,"Excellent!","You are really engaging when you speak.","Task",NA,NA,NA,"SUPPRF16300"
"87",87,1692005699695,"14/08/2023 09:34:59",1692009299695,1,"14/08/2023 11:34:59",140743,17,"task-5vg1",NA,31172407,NA,"complete",NA,"64d9ff71624435bf2a23761d","computer","Desktop or Laptop","Windows 10","Chrome 115.0.0.0","1536x864","1536x707",NA,NA,0,"Feedback Phrases Task - List 2 (Clone with new randomisation)",4,"CDBEAFJGIH",NA,"study_2 (video_feedback and feedback_list_2)","Feedback_ranking_L2_first","Feedback Phrases List 2",42,"Task","Screen 3","izqege",2,"continue","",1766.79299999998,1766.79299999998,1766.79299999998,1766.79299999998,1766.79299999998,1766.79299999998,1,1766.79299999998,0,0,NA,"Fixation Timing","Fixation Cross",1,"object-48",NA,1,"Excellent!","You are really engaging when you speak.","Task",NA,NA,NA,"SUPPRF16300"
"88",88,1692005700290,"14/08/2023 09:35:00",1692009300290,1,"14/08/2023 11:35:00",140743,17,"task-5vg1",NA,31172407,NA,"complete",NA,"64d9ff71624435bf2a23761d","computer","Desktop or Laptop","Windows 10","Chrome 115.0.0.0","1536x864","1536x707",NA,NA,0,"Feedback Phrases Task - List 2 (Clone with new randomisation)",4,"CDBEAFJGIH",NA,"study_2 (video_feedback and feedback_list_2)","Feedback_ranking_L2_first","Feedback Phrases List 2",43,"Task","Screen 1","113qg5",1,"response","You came across really well.",596.05400000597,583.186000000016,596.05400000597,596.05400000597,583.186000000016,596.05400000597,1,596.05400000597,0,0,NA,"Click Response","Text_left_X1",2,"object-18",NA,1,"You came across really well.","You said all the right things.","Task",NA,NA,NA,"SUPPRF16300"
"89",89,1692005702045,"14/08/2023 09:35:02",1692009302045,1,"14/08/2023 11:35:02",140743,17,"task-5vg1",NA,31172407,NA,"complete",NA,"64d9ff71624435bf2a23761d","computer","Desktop or Laptop","Windows 10","Chrome 115.0.0.0","1536x864","1536x707",NA,NA,0,"Feedback Phrases Task - List 2 (Clone with new randomisation)",4,"CDBEAFJGIH",NA,"study_2 (video_feedback and feedback_list_2)","Feedback_ranking_L2_first","Feedback Phrases List 2",43,"Task","Screen 3","izqege",2,"continue","",1766.85800000001,1766.85800000001,1766.85800000001,1766.85800000001,1766.85800000001,1766.85800000001,1,1766.85800000001,0,0,NA,"Fixation Timing","Fixation Cross",1,"object-48",NA,1,"You came across really well.","You said all the right things.","Task",NA,NA,NA,"SUPPRF16300"
"90",90,1692005702434,"14/08/2023 09:35:02",1692009302434,1,"14/08/2023 11:35:02",140743,17,"task-5vg1",NA,31172407,NA,"complete",NA,"64d9ff71624435bf2a23761d","computer","Desktop or Laptop","Windows 10","Chrome 115.0.0.0","1536x864","1536x707",NA,NA,0,"Feedback Phrases Task - List 2 (Clone with new randomisation)",4,"CDBEAFJGIH",NA,"study_2 (video_feedback and feedback_list_2)","Feedback_ranking_L2_first","Feedback Phrases List 2",44,"Task","Screen 1","113qg5",1,"response","You appear very smart.",389.909999982105,383.257999999973,389.909999982105,389.909999982105,383.257999999973,389.909999982105,1,389.909999982105,0,0,NA,"Click Response","Text_left_X1",2,"object-18",NA,1,"You appear very smart.","Well done!","Task",NA,NA,NA,"SUPPRF16300"
"91",91,1692005704195,"14/08/2023 09:35:04",1692009304195,1,"14/08/2023 11:35:04",140743,17,"task-5vg1",NA,31172407,NA,"complete",NA,"64d9ff71624435bf2a23761d","computer","Desktop or Laptop","Windows 10","Chrome 115.0.0.0","1536x864","1536x707",NA,NA,0,"Feedback Phrases Task - List 2 (Clone with new randomisation)",4,"CDBEAFJGIH",NA,"study_2 (video_feedback and feedback_list_2)","Feedback_ranking_L2_first","Feedback Phrases List 2",44,"Task","Screen 3","izqege",2,"continue","",1766.69200000001,1766.69200000001,1766.69200000001,1766.69200000001,1766.69200000001,1766.69200000001,1,1766.69200000001,0,0,NA,"Fixation Timing","Fixation Cross",1,"object-48",NA,1,"You appear very smart.","Well done!","Task",NA,NA,NA,"SUPPRF16300"
"92",92,1692005704985,"14/08/2023 09:35:04",1692009304985,1,"14/08/2023 11:35:04",140743,17,"task-5vg1",NA,31172407,NA,"complete",NA,"64d9ff71624435bf2a23761d","computer","Desktop or Laptop","Windows 10","Chrome 115.0.0.0","1536x864","1536x707",NA,NA,0,"Feedback Phrases Task - List 2 (Clone with new randomisation)",4,"CDBEAFJGIH",NA,"study_2 (video_feedback and feedback_list_2)","Feedback_ranking_L2_first","Feedback Phrases List 2",45,"Task","Screen 1","113qg5",1,"response","You came across really well.",790.359999988083,783.331000000006,790.359999988083,790.359999988083,783.331000000006,790.359999988083,1,790.359999988083,0,0,NA,"Click Response","Text_left_X1",2,"object-18",NA,1,"You came across really well.","That was decent.","Task",NA,NA,NA,"SUPPRF16300"
"93",93,1692005706745,"14/08/2023 09:35:06",1692009306745,1,"14/08/2023 11:35:06",140743,17,"task-5vg1",NA,31172407,NA,"complete",NA,"64d9ff71624435bf2a23761d","computer","Desktop or Laptop","Windows 10","Chrome 115.0.0.0","1536x864","1536x707",NA,NA,0,"Feedback Phrases Task - List 2 (Clone with new randomisation)",4,"CDBEAFJGIH",NA,"study_2 (video_feedback and feedback_list_2)","Feedback_ranking_L2_first","Feedback Phrases List 2",45,"Task","Screen 3","izqege",2,"continue","",1766.64999999999,1766.64999999999,1766.64999999999,1766.64999999999,1766.64999999999,1766.64999999999,1,1766.64999999999,0,0,NA,"Fixation Timing","Fixation Cross",1,"object-48",NA,1,"You came across really well.","That was decent.","Task",NA,NA,NA,"SUPPRF16300"
"94",94,1692005707705,"14/08/2023 09:35:07",1692009307705,1,"14/08/2023 11:35:07",140743,17,"task-5vg1",NA,31172407,NA,"complete",NA,"64d9ff71624435bf2a23761d","computer","Desktop or Laptop","Windows 10","Chrome 115.0.0.0","1536x864","1536x707",NA,NA,0,"Feedback Phrases Task - List 2 (Clone with new randomisation)",4,"CDBEAFJGIH",NA,"study_2 (video_feedback and feedback_list_2)","Feedback_ranking_L2_first","Feedback Phrases List 2",46,"Task","Screen 1","113qg5",1,"response","I could easily picture what you were describing.",960.978999982122,949.78899999999,960.978999982122,960.978999982122,949.78899999999,960.978999982122,1,960.978999982122,0,0,NA,"Click Response","Text_right_X2",3,"object-19",NA,1,"You said all the right things.","I could easily picture what you were describing.","Task",NA,NA,NA,"SUPPRF16300"
"95",95,1692005709462,"14/08/2023 09:35:09",1692009309462,1,"14/08/2023 11:35:09",140743,17,"task-5vg1",NA,31172407,NA,"complete",NA,"64d9ff71624435bf2a23761d","computer","Desktop or Laptop","Windows 10","Chrome 115.0.0.0","1536x864","1536x707",NA,NA,0,"Feedback Phrases Task - List 2 (Clone with new randomisation)",4,"CDBEAFJGIH",NA,"study_2 (video_feedback and feedback_list_2)","Feedback_ranking_L2_first","Feedback Phrases List 2",46,"Task","Screen 3","izqege",2,"continue","",1766.68900000001,1766.68900000001,1766.68900000001,1766.68900000001,1766.68900000001,1766.68900000001,1,1766.68900000001,0,0,NA,"Fixation Timing","Fixation Cross",1,"object-48",NA,1,"You said all the right things.","I could easily picture what you were describing.","Task",NA,NA,NA,"SUPPRF16300"
"96",96,1692005710186,"14/08/2023 09:35:10",1692009310186,1,"14/08/2023 11:35:10",140743,17,"task-5vg1",NA,31172407,NA,"complete",NA,"64d9ff71624435bf2a23761d","computer","Desktop or Laptop","Windows 10","Chrome 115.0.0.0","1536x864","1536x707",NA,NA,0,"Feedback Phrases Task - List 2 (Clone with new randomisation)",4,"CDBEAFJGIH",NA,"study_2 (video_feedback and feedback_list_2)","Feedback_ranking_L2_first","Feedback Phrases List 2",47,"Task","Screen 1","113qg5",1,"response","You seemed very in-control.",725.201000000001,716.679000000004,725.201000000001,725.201000000001,716.679000000004,725.201000000001,1,725.201000000001,0,0,NA,"Click Response","Text_right_X2",3,"object-19",NA,1,"You appeared very confident.","You seemed very in-control.","Task",NA,NA,NA,"SUPPRF16300"
"97",97,1692005711945,"14/08/2023 09:35:11",1692009311945,1,"14/08/2023 11:35:11",140743,17,"task-5vg1",NA,31172407,NA,"complete",NA,"64d9ff71624435bf2a23761d","computer","Desktop or Laptop","Windows 10","Chrome 115.0.0.0","1536x864","1536x707",NA,NA,0,"Feedback Phrases Task - List 2 (Clone with new randomisation)",4,"CDBEAFJGIH",NA,"study_2 (video_feedback and feedback_list_2)","Feedback_ranking_L2_first","Feedback Phrases List 2",47,"Task","Screen 3","izqege",2,"continue","",1766.783,1766.783,1766.783,1766.783,1766.783,1766.783,1,1766.783,0,0,NA,"Fixation Timing","Fixation Cross",1,"object-48",NA,1,"You appeared very confident.","You seemed very in-control.","Task",NA,NA,NA,"SUPPRF16300"
"98",98,1692005712862,"14/08/2023 09:35:12",1692009312862,1,"14/08/2023 11:35:12",140743,17,"task-5vg1",NA,31172407,NA,"complete",NA,"64d9ff71624435bf2a23761d","computer","Desktop or Laptop","Windows 10","Chrome 115.0.0.0","1536x864","1536x707",NA,NA,0,"Feedback Phrases Task - List 2 (Clone with new randomisation)",4,"CDBEAFJGIH",NA,"study_2 (video_feedback and feedback_list_2)","Feedback_ranking_L2_first","Feedback Phrases List 2",48,"Task","Screen 1","113qg5",1,"response","You seemed very in-control.",917.739000000001,916.592999999993,917.739000000001,917.739000000001,916.592999999993,917.739000000001,1,917.739000000001,0,0,NA,"Click Response","Text_right_X2",3,"object-19",NA,1,"You said all the right things.","You seemed very in-control.","Task",NA,NA,NA,"SUPPRF16300"
"99",99,1692005714628,"14/08/2023 09:35:14",1692009314628,1,"14/08/2023 11:35:14",140743,17,"task-5vg1",NA,31172407,NA,"complete",NA,"64d9ff71624435bf2a23761d","computer","Desktop or Laptop","Windows 10","Chrome 115.0.0.0","1536x864","1536x707",NA,NA,0,"Feedback Phrases Task - List 2 (Clone with new randomisation)",4,"CDBEAFJGIH",NA,"study_2 (video_feedback and feedback_list_2)","Feedback_ranking_L2_first","Feedback Phrases List 2",48,"Task","Screen 3","izqege",2,"continue","",1766.82800000001,1766.82800000001,1766.82800000001,1766.82800000001,1766.82800000001,1766.82800000001,1,1766.82800000001,0,0,NA,"Fixation Timing","Fixation Cross",1,"object-48",NA,1,"You said all the right things.","You seemed very in-control.","Task",NA,NA,NA,"SUPPRF16300"
"100",100,1692005715240,"14/08/2023 09:35:15",1692009315240,1,"14/08/2023 11:35:15",140743,17,"task-5vg1",NA,31172407,NA,"complete",NA,"64d9ff71624435bf2a23761d","computer","Desktop or Laptop","Windows 10","Chrome 115.0.0.0","1536x864","1536x707",NA,NA,0,"Feedback Phrases Task - List 2 (Clone with new randomisation)",4,"CDBEAFJGIH",NA,"study_2 (video_feedback and feedback_list_2)","Feedback_ranking_L2_first","Feedback Phrases List 2",49,"Task","Screen 1","113qg5",1,"response","You came across really well.",612.71800000596,599.939000000013,612.71800000596,612.71800000596,599.939000000013,612.71800000596,1,612.71800000596,0,0,NA,"Click Response","Text_left_X1",2,"object-18",NA,1,"You came across really well.","You appeared very confident.","Task",NA,NA,NA,"SUPPRF16300"
"101",101,1692005716994,"14/08/2023 09:35:16",1692009316994,1,"14/08/2023 11:35:16",140743,17,"task-5vg1",NA,31172407,NA,"complete",NA,"64d9ff71624435bf2a23761d","computer","Desktop or Laptop","Windows 10","Chrome 115.0.0.0","1536x864","1536x707",NA,NA,0,"Feedback Phrases Task - List 2 (Clone with new randomisation)",4,"CDBEAFJGIH",NA,"study_2 (video_feedback and feedback_list_2)","Feedback_ranking_L2_first","Feedback Phrases List 2",49,"Task","Screen 3","izqege",2,"continue","",1766.45799999998,1766.45799999998,1766.45799999998,1766.45799999998,1766.45799999998,1766.45799999998,1,1766.45799999998,0,0,NA,"Fixation Timing","Fixation Cross",1,"object-48",NA,1,"You came across really well.","You appeared very confident.","Task",NA,NA,NA,"SUPPRF16300"
"102",102,1692005718388,"14/08/2023 09:35:18",1692009318388,1,"14/08/2023 11:35:18",140743,17,"task-5vg1",NA,31172407,NA,"complete",NA,"64d9ff71624435bf2a23761d","computer","Desktop or Laptop","Windows 10","Chrome 115.0.0.0","1536x864","1536x707",NA,NA,0,"Feedback Phrases Task - List 2 (Clone with new randomisation)",4,"CDBEAFJGIH",NA,"study_2 (video_feedback and feedback_list_2)","Feedback_ranking_L2_first","Feedback Phrases List 2",50,"Task","Screen 1","113qg5",1,"response","You are really engaging when you speak.",1393.52099999404,1383.50899999999,1393.52099999404,1393.52099999404,1383.50899999999,1393.52099999404,1,1393.52099999404,0,0,NA,"Click Response","Text_right_X2",3,"object-19",NA,1,"That was satisfactory.","You are really engaging when you speak.","Task",NA,NA,NA,"SUPPRF16300"
"103",103,1692005720144,"14/08/2023 09:35:20",1692009320144,1,"14/08/2023 11:35:20",140743,17,"task-5vg1",NA,31172407,NA,"complete",NA,"64d9ff71624435bf2a23761d","computer","Desktop or Laptop","Windows 10","Chrome 115.0.0.0","1536x864","1536x707",NA,NA,0,"Feedback Phrases Task - List 2 (Clone with new randomisation)",4,"CDBEAFJGIH",NA,"study_2 (video_feedback and feedback_list_2)","Feedback_ranking_L2_first","Feedback Phrases List 2",50,"Task","Screen 3","izqege",2,"continue","",1766.48300000001,1766.48300000001,1766.48300000001,1766.48300000001,1766.48300000001,1766.48300000001,1,1766.48300000001,0,0,NA,"Fixation Timing","Fixation Cross",1,"object-48",NA,1,"That was satisfactory.","You are really engaging when you speak.","Task",NA,NA,NA,"SUPPRF16300"
"104",104,1692005720429,"14/08/2023 09:35:20",1692009320429,1,"14/08/2023 11:35:20",140743,17,"task-5vg1",NA,31172407,NA,"complete",NA,"64d9ff71624435bf2a23761d","computer","Desktop or Laptop","Windows 10","Chrome 115.0.0.0","1536x864","1536x707",NA,NA,0,"Feedback Phrases Task - List 2 (Clone with new randomisation)",4,"CDBEAFJGIH",NA,"study_2 (video_feedback and feedback_list_2)","Feedback_ranking_L2_first","Feedback Phrases List 2",51,"Task","Screen 1","113qg5",1,"response","That was perfect.",285.028999994043,283.477000000014,285.028999994043,285.028999994043,283.477000000014,285.028999994043,1,285.028999994043,0,0,NA,"Click Response","Text_right_X2",3,"object-19",NA,1,"You did what was asked of you.","That was perfect.","Task",NA,NA,NA,"SUPPRF16300"
"105",105,1692005722195,"14/08/2023 09:35:22",1692009322195,1,"14/08/2023 11:35:22",140743,17,"task-5vg1",NA,31172407,NA,"complete",NA,"64d9ff71624435bf2a23761d","computer","Desktop or Laptop","Windows 10","Chrome 115.0.0.0","1536x864","1536x707",NA,NA,0,"Feedback Phrases Task - List 2 (Clone with new randomisation)",4,"CDBEAFJGIH",NA,"study_2 (video_feedback and feedback_list_2)","Feedback_ranking_L2_first","Feedback Phrases List 2",51,"Task","Screen 3","izqege",2,"continue","",1766.56099999999,1766.56099999999,1766.56099999999,1766.56099999999,1766.56099999999,1766.56099999999,1,1766.56099999999,0,0,NA,"Fixation Timing","Fixation Cross",1,"object-48",NA,1,"You did what was asked of you.","That was perfect.","Task",NA,NA,NA,"SUPPRF16300"
"106",106,1692005722826,"14/08/2023 09:35:22",1692009322826,1,"14/08/2023 11:35:22",140743,17,"task-5vg1",NA,31172407,NA,"complete",NA,"64d9ff71624435bf2a23761d","computer","Desktop or Laptop","Windows 10","Chrome 115.0.0.0","1536x864","1536x707",NA,NA,0,"Feedback Phrases Task - List 2 (Clone with new randomisation)",4,"CDBEAFJGIH",NA,"study_2 (video_feedback and feedback_list_2)","Feedback_ranking_L2_first","Feedback Phrases List 2",52,"Task","Screen 1","113qg5",1,"response","I could easily picture what you were describing.",632.190999982122,616.774000000005,632.190999982122,632.190999982122,616.774000000005,632.190999982122,1,632.190999982122,0,0,NA,"Click Response","Text_left_X1",2,"object-18",NA,1,"I could easily picture what you were describing.","That was satisfactory.","Task",NA,NA,NA,"SUPPRF16300"
"107",107,1692005724578,"14/08/2023 09:35:24",1692009324578,1,"14/08/2023 11:35:24",140743,17,"task-5vg1",NA,31172407,NA,"complete",NA,"64d9ff71624435bf2a23761d","computer","Desktop or Laptop","Windows 10","Chrome 115.0.0.0","1536x864","1536x707",NA,NA,0,"Feedback Phrases Task - List 2 (Clone with new randomisation)",4,"CDBEAFJGIH",NA,"study_2 (video_feedback and feedback_list_2)","Feedback_ranking_L2_first","Feedback Phrases List 2",52,"Task","Screen 3","izqege",2,"continue","",1766.64300000001,1766.64300000001,1766.64300000001,1766.64300000001,1766.64300000001,1766.64300000001,1,1766.64300000001,0,0,NA,"Fixation Timing","Fixation Cross",1,"object-48",NA,1,"I could easily picture what you were describing.","That was satisfactory.","Task",NA,NA,NA,"SUPPRF16300"
"108",108,1692005725052,"14/08/2023 09:35:25",1692009325052,1,"14/08/2023 11:35:25",140743,17,"task-5vg1",NA,31172407,NA,"complete",NA,"64d9ff71624435bf2a23761d","computer","Desktop or Laptop","Windows 10","Chrome 115.0.0.0","1536x864","1536x707",NA,NA,0,"Feedback Phrases Task - List 2 (Clone with new randomisation)",4,"CDBEAFJGIH",NA,"study_2 (video_feedback and feedback_list_2)","Feedback_ranking_L2_first","Feedback Phrases List 2",53,"Task","Screen 1","113qg5",1,"response","I could easily picture what you were describing.",474.673999988066,466.618999999977,474.673999988066,474.673999988066,466.618999999977,474.673999988066,1,474.673999988066,0,0,NA,"Click Response","Text_left_X1",2,"object-18",NA,1,"I could easily picture what you were describing.","You're very articulate.","Task",NA,NA,NA,"SUPPRF16300"
"109",109,1692005726811,"14/08/2023 09:35:26",1692009326811,1,"14/08/2023 11:35:26",140743,17,"task-5vg1",NA,31172407,NA,"complete",NA,"64d9ff71624435bf2a23761d","computer","Desktop or Laptop","Windows 10","Chrome 115.0.0.0","1536x864","1536x707",NA,NA,0,"Feedback Phrases Task - List 2 (Clone with new randomisation)",4,"CDBEAFJGIH",NA,"study_2 (video_feedback and feedback_list_2)","Feedback_ranking_L2_first","Feedback Phrases List 2",53,"Task","Screen 3","izqege",2,"continue","",1766.715,1766.715,1766.715,1766.715,1766.715,1766.715,1,1766.715,0,0,NA,"Fixation Timing","Fixation Cross",1,"object-48",NA,1,"I could easily picture what you were describing.","You're very articulate.","Task",NA,NA,NA,"SUPPRF16300"
"110",110,1692005727324,"14/08/2023 09:35:27",1692009327324,1,"14/08/2023 11:35:27",140743,17,"task-5vg1",NA,31172407,NA,"complete",NA,"64d9ff71624435bf2a23761d","computer","Desktop or Laptop","Windows 10","Chrome 115.0.0.0","1536x864","1536x707",NA,NA,0,"Feedback Phrases Task - List 2 (Clone with new randomisation)",4,"CDBEAFJGIH",NA,"study_2 (video_feedback and feedback_list_2)","Feedback_ranking_L2_first","Feedback Phrases List 2",54,"Task","Screen 1","113qg5",1,"response","You did what was asked of you.",513.339999988093,499.982000000018,513.339999988093,513.339999988093,499.982000000018,513.339999988093,1,513.339999988093,0,0,NA,"Click Response","Text_left_X1",2,"object-18",NA,1,"You did what was asked of you.","You said all the right things.","Task",NA,NA,NA,"SUPPRF16300"
"111",111,1692005729078,"14/08/2023 09:35:29",1692009329078,1,"14/08/2023 11:35:29",140743,17,"task-5vg1",NA,31172407,NA,"complete",NA,"64d9ff71624435bf2a23761d","computer","Desktop or Laptop","Windows 10","Chrome 115.0.0.0","1536x864","1536x707",NA,NA,0,"Feedback Phrases Task - List 2 (Clone with new randomisation)",4,"CDBEAFJGIH",NA,"study_2 (video_feedback and feedback_list_2)","Feedback_ranking_L2_first","Feedback Phrases List 2",54,"Task","Screen 3","izqege",2,"continue","",1766.63500000001,1766.63500000001,1766.63500000001,1766.63500000001,1766.63500000001,1766.63500000001,1,1766.63500000001,0,0,NA,"Fixation Timing","Fixation Cross",1,"object-48",NA,1,"You did what was asked of you.","You said all the right things.","Task",NA,NA,NA,"SUPPRF16300"
"112",112,1692005729586,"14/08/2023 09:35:29",1692009329586,1,"14/08/2023 11:35:29",140743,17,"task-5vg1",NA,31172407,NA,"complete",NA,"64d9ff71624435bf2a23761d","computer","Desktop or Laptop","Windows 10","Chrome 115.0.0.0","1536x864","1536x707",NA,NA,0,"Feedback Phrases Task - List 2 (Clone with new randomisation)",4,"CDBEAFJGIH",NA,"study_2 (video_feedback and feedback_list_2)","Feedback_ranking_L2_first","Feedback Phrases List 2",55,"Task","Screen 1","113qg5",1,"response","You are really engaging when you speak.",509.022999999986,499.987999999983,509.022999999986,509.022999999986,499.987999999983,509.022999999986,1,509.022999999986,0,0,NA,"Click Response","Text_right_X2",3,"object-19",NA,1,"You appeared very confident.","You are really engaging when you speak.","Task",NA,NA,NA,"SUPPRF16300"
"113",113,1692005731345,"14/08/2023 09:35:31",1692009331345,1,"14/08/2023 11:35:31",140743,17,"task-5vg1",NA,31172407,NA,"complete",NA,"64d9ff71624435bf2a23761d","computer","Desktop or Laptop","Windows 10","Chrome 115.0.0.0","1536x864","1536x707",NA,NA,0,"Feedback Phrases Task - List 2 (Clone with new randomisation)",4,"CDBEAFJGIH",NA,"study_2 (video_feedback and feedback_list_2)","Feedback_ranking_L2_first","Feedback Phrases List 2",55,"Task","Screen 3","izqege",2,"continue","",1766.704,1766.704,1766.704,1766.704,1766.704,1766.704,1,1766.704,0,0,NA,"Fixation Timing","Fixation Cross",1,"object-48",NA,1,"You appeared very confident.","You are really engaging when you speak.","Task",NA,NA,NA,"SUPPRF16300"
"114",114,1692005731896,"14/08/2023 09:35:31",1692009331896,1,"14/08/2023 11:35:31",140743,17,"task-5vg1",NA,31172407,NA,"complete",NA,"64d9ff71624435bf2a23761d","computer","Desktop or Laptop","Windows 10","Chrome 115.0.0.0","1536x864","1536x707",NA,NA,0,"Feedback Phrases Task - List 2 (Clone with new randomisation)",4,"CDBEAFJGIH",NA,"study_2 (video_feedback and feedback_list_2)","Feedback_ranking_L2_first","Feedback Phrases List 2",56,"Task","Screen 1","113qg5",1,"response","You came across really well.",551.930999994045,550.001000000018,551.930999994045,551.930999994045,550.001000000018,551.930999994045,1,551.930999994045,0,0,NA,"Click Response","Text_left_X1",2,"object-18",NA,1,"You came across really well.","You did what was asked of you.","Task",NA,NA,NA,"SUPPRF16300"
"115",115,1692005733661,"14/08/2023 09:35:33",1692009333661,1,"14/08/2023 11:35:33",140743,17,"task-5vg1",NA,31172407,NA,"complete",NA,"64d9ff71624435bf2a23761d","computer","Desktop or Laptop","Windows 10","Chrome 115.0.0.0","1536x864","1536x707",NA,NA,0,"Feedback Phrases Task - List 2 (Clone with new randomisation)",4,"CDBEAFJGIH",NA,"study_2 (video_feedback and feedback_list_2)","Feedback_ranking_L2_first","Feedback Phrases List 2",56,"Task","Screen 3","izqege",2,"continue","",1766.66499999998,1766.66499999998,1766.66499999998,1766.66499999998,1766.66499999998,1766.66499999998,1,1766.66499999998,0,0,NA,"Fixation Timing","Fixation Cross",1,"object-48",NA,1,"You came across really well.","You did what was asked of you.","Task",NA,NA,NA,"SUPPRF16300"
"116",116,1692005734248,"14/08/2023 09:35:34",1692009334248,1,"14/08/2023 11:35:34",140743,17,"task-5vg1",NA,31172407,NA,"complete",NA,"64d9ff71624435bf2a23761d","computer","Desktop or Laptop","Windows 10","Chrome 115.0.0.0","1536x864","1536x707",NA,NA,0,"Feedback Phrases Task - List 2 (Clone with new randomisation)",4,"CDBEAFJGIH",NA,"study_2 (video_feedback and feedback_list_2)","Feedback_ranking_L2_first","Feedback Phrases List 2",57,"Task","Screen 1","113qg5",1,"response","Your description was very insightful.",587.665000000008,583.343000000023,587.665000000008,587.665000000008,583.343000000023,587.665000000008,1,587.665000000008,0,0,NA,"Click Response","Text_right_X2",3,"object-19",NA,1,"You appeared very confident.","Your description was very insightful.","Task",NA,NA,NA,"SUPPRF16300"
"117",117,1692005736011,"14/08/2023 09:35:36",1692009336011,1,"14/08/2023 11:35:36",140743,17,"task-5vg1",NA,31172407,NA,"complete",NA,"64d9ff71624435bf2a23761d","computer","Desktop or Laptop","Windows 10","Chrome 115.0.0.0","1536x864","1536x707",NA,NA,0,"Feedback Phrases Task - List 2 (Clone with new randomisation)",4,"CDBEAFJGIH",NA,"study_2 (video_feedback and feedback_list_2)","Feedback_ranking_L2_first","Feedback Phrases List 2",57,"Task","Screen 3","izqege",2,"continue","",1766.66899999999,1766.66899999999,1766.66899999999,1766.66899999999,1766.66899999999,1766.66899999999,1,1766.66899999999,0,0,NA,"Fixation Timing","Fixation Cross",1,"object-48",NA,1,"You appeared very confident.","Your description was very insightful.","Task",NA,NA,NA,"SUPPRF16300"
"118",118,1692005736886,"14/08/2023 09:35:36",1692009336886,1,"14/08/2023 11:35:36",140743,17,"task-5vg1",NA,31172407,NA,"complete",NA,"64d9ff71624435bf2a23761d","computer","Desktop or Laptop","Windows 10","Chrome 115.0.0.0","1536x864","1536x707",NA,NA,0,"Feedback Phrases Task - List 2 (Clone with new randomisation)",4,"CDBEAFJGIH",NA,"study_2 (video_feedback and feedback_list_2)","Feedback_ranking_L2_first","Feedback Phrases List 2",58,"Task","Screen 1","113qg5",1,"response","You're very articulate.",874.95299998211,866.663,874.95299998211,874.95299998211,866.663,874.95299998211,1,874.95299998211,0,0,NA,"Click Response","Text_left_X1",2,"object-18",NA,1,"You're very articulate.","You did what was asked of you.","Task",NA,NA,NA,"SUPPRF16300"
"119",119,1692005738645,"14/08/2023 09:35:38",1692009338645,1,"14/08/2023 11:35:38",140743,17,"task-5vg1",NA,31172407,NA,"complete",NA,"64d9ff71624435bf2a23761d","computer","Desktop or Laptop","Windows 10","Chrome 115.0.0.0","1536x864","1536x707",NA,NA,0,"Feedback Phrases Task - List 2 (Clone with new randomisation)",4,"CDBEAFJGIH",NA,"study_2 (video_feedback and feedback_list_2)","Feedback_ranking_L2_first","Feedback Phrases List 2",58,"Task","Screen 3","izqege",2,"continue","",1766.69899999999,1766.69899999999,1766.69899999999,1766.69899999999,1766.69899999999,1766.69899999999,1,1766.69899999999,0,0,NA,"Fixation Timing","Fixation Cross",1,"object-48",NA,1,"You're very articulate.","You did what was asked of you.","Task",NA,NA,NA,"SUPPRF16300"
"120",120,1692005739725,"14/08/2023 09:35:39",1692009339725,1,"14/08/2023 11:35:39",140743,17,"task-5vg1",NA,31172407,NA,"complete",NA,"64d9ff71624435bf2a23761d","computer","Desktop or Laptop","Windows 10","Chrome 115.0.0.0","1536x864","1536x707",NA,NA,0,"Feedback Phrases Task - List 2 (Clone with new randomisation)",4,"CDBEAFJGIH",NA,"study_2 (video_feedback and feedback_list_2)","Feedback_ranking_L2_first","Feedback Phrases List 2",59,"Task","Screen 1","113qg5",1,"response","I could easily picture what you were describing.",1080.99099998808,1066.52499999999,1080.99099998808,1080.99099998808,1066.52499999999,1080.99099998808,1,1080.99099998808,0,0,NA,"Click Response","Text_left_X1",2,"object-18",NA,1,"I could easily picture what you were describing.","You appeared very confident.","Task",NA,NA,NA,"SUPPRF16300"
"121",121,1692005741478,"14/08/2023 09:35:41",1692009341478,1,"14/08/2023 11:35:41",140743,17,"task-5vg1",NA,31172407,NA,"complete",NA,"64d9ff71624435bf2a23761d","computer","Desktop or Laptop","Windows 10","Chrome 115.0.0.0","1536x864","1536x707",NA,NA,0,"Feedback Phrases Task - List 2 (Clone with new randomisation)",4,"CDBEAFJGIH",NA,"study_2 (video_feedback and feedback_list_2)","Feedback_ranking_L2_first","Feedback Phrases List 2",59,"Task","Screen 3","izqege",2,"continue","",1766.64999999999,1766.64999999999,1766.64999999999,1766.64999999999,1766.64999999999,1766.64999999999,1,1766.64999999999,0,0,NA,"Fixation Timing","Fixation Cross",1,"object-48",NA,1,"I could easily picture what you were describing.","You appeared very confident.","Task",NA,NA,NA,"SUPPRF16300"
"122",122,1692005742234,"14/08/2023 09:35:42",1692009342234,1,"14/08/2023 11:35:42",140743,17,"task-5vg1",NA,31172407,NA,"complete",NA,"64d9ff71624435bf2a23761d","computer","Desktop or Laptop","Windows 10","Chrome 115.0.0.0","1536x864","1536x707",NA,NA,0,"Feedback Phrases Task - List 2 (Clone with new randomisation)",4,"CDBEAFJGIH",NA,"study_2 (video_feedback and feedback_list_2)","Feedback_ranking_L2_first","Feedback Phrases List 2",60,"Task","Screen 1","113qg5",1,"response","Excellent!",756.715999994049,750.282000000007,756.715999994049,756.715999994049,750.282000000007,756.715999994049,1,756.715999994049,0,0,NA,"Click Response","Text_left_X1",2,"object-18",NA,1,"Excellent!","You came across really well.","Task",NA,NA,NA,"SUPPRF16300"
"123",123,1692005743995,"14/08/2023 09:35:43",1692009343995,1,"14/08/2023 11:35:43",140743,17,"task-5vg1",NA,31172407,NA,"complete",NA,"64d9ff71624435bf2a23761d","computer","Desktop or Laptop","Windows 10","Chrome 115.0.0.0","1536x864","1536x707",NA,NA,0,"Feedback Phrases Task - List 2 (Clone with new randomisation)",4,"CDBEAFJGIH",NA,"study_2 (video_feedback and feedback_list_2)","Feedback_ranking_L2_first","Feedback Phrases List 2",60,"Task","Screen 3","izqege",2,"continue","",1766.57000000001,1766.57000000001,1766.57000000001,1766.57000000001,1766.57000000001,1766.57000000001,1,1766.57000000001,0,0,NA,"Fixation Timing","Fixation Cross",1,"object-48",NA,1,"Excellent!","You came across really well.","Task",NA,NA,NA,"SUPPRF16300"
"124",124,1692005744492,"14/08/2023 09:35:44",1692009344492,1,"14/08/2023 11:35:44",140743,17,"task-5vg1",NA,31172407,NA,"complete",NA,"64d9ff71624435bf2a23761d","computer","Desktop or Laptop","Windows 10","Chrome 115.0.0.0","1536x864","1536x707",NA,NA,0,"Feedback Phrases Task - List 2 (Clone with new randomisation)",4,"CDBEAFJGIH",NA,"study_2 (video_feedback and feedback_list_2)","Feedback_ranking_L2_first","Feedback Phrases List 2",61,"Task","Screen 1","113qg5",1,"response","You appeared very confident.",497.763999999996,483.288,497.763999999996,497.763999999996,483.288,497.763999999996,1,497.763999999996,0,0,NA,"Click Response","Text_right_X2",3,"object-19",NA,1,"You said all the right things.","You appeared very confident.","Task",NA,NA,NA,"SUPPRF16300"
"125",125,1692005746245,"14/08/2023 09:35:46",1692009346245,1,"14/08/2023 11:35:46",140743,17,"task-5vg1",NA,31172407,NA,"complete",NA,"64d9ff71624435bf2a23761d","computer","Desktop or Laptop","Windows 10","Chrome 115.0.0.0","1536x864","1536x707",NA,NA,0,"Feedback Phrases Task - List 2 (Clone with new randomisation)",4,"CDBEAFJGIH",NA,"study_2 (video_feedback and feedback_list_2)","Feedback_ranking_L2_first","Feedback Phrases List 2",61,"Task","Screen 3","izqege",2,"continue","",1766.573,1766.573,1766.573,1766.573,1766.573,1766.573,1,1766.573,0,0,NA,"Fixation Timing","Fixation Cross",1,"object-48",NA,1,"You said all the right things.","You appeared very confident.","Task",NA,NA,NA,"SUPPRF16300"
"126",126,1692005746746,"14/08/2023 09:35:46",1692009346746,1,"14/08/2023 11:35:46",140743,17,"task-5vg1",NA,31172407,NA,"complete",NA,"64d9ff71624435bf2a23761d","computer","Desktop or Laptop","Windows 10","Chrome 115.0.0.0","1536x864","1536x707",NA,NA,0,"Feedback Phrases Task - List 2 (Clone with new randomisation)",4,"CDBEAFJGIH",NA,"study_2 (video_feedback and feedback_list_2)","Feedback_ranking_L2_first","Feedback Phrases List 2",62,"Task","Screen 1","113qg5",1,"response","You said all the right things.",500.177999999985,483.437999999995,500.177999999985,500.177999999985,483.437999999995,500.177999999985,1,500.177999999985,0,0,NA,"Click Response","Text_right_X2",3,"object-19",NA,1,"Excellent!","You said all the right things.","Task",NA,NA,NA,"SUPPRF16300"
"127",127,1692005748495,"14/08/2023 09:35:48",1692009348495,1,"14/08/2023 11:35:48",140743,17,"task-5vg1",NA,31172407,NA,"complete",NA,"64d9ff71624435bf2a23761d","computer","Desktop or Laptop","Windows 10","Chrome 115.0.0.0","1536x864","1536x707",NA,NA,0,"Feedback Phrases Task - List 2 (Clone with new randomisation)",4,"CDBEAFJGIH",NA,"study_2 (video_feedback and feedback_list_2)","Feedback_ranking_L2_first","Feedback Phrases List 2",62,"Task","Screen 3","izqege",2,"continue","",1766.568,1766.568,1766.568,1766.568,1766.568,1766.568,1,1766.568,0,0,NA,"Fixation Timing","Fixation Cross",1,"object-48",NA,1,"Excellent!","You said all the right things.","Task",NA,NA,NA,"SUPPRF16300"
"128",128,1692005749222,"14/08/2023 09:35:49",1692009349222,1,"14/08/2023 11:35:49",140743,17,"task-5vg1",NA,31172407,NA,"complete",NA,"64d9ff71624435bf2a23761d","computer","Desktop or Laptop","Windows 10","Chrome 115.0.0.0","1536x864","1536x707",NA,NA,0,"Feedback Phrases Task - List 2 (Clone with new randomisation)",4,"CDBEAFJGIH",NA,"study_2 (video_feedback and feedback_list_2)","Feedback_ranking_L2_first","Feedback Phrases List 2",63,"Task","Screen 1","113qg5",1,"response","You said all the right things.",727.696999982116,716.5,727.696999982116,727.696999982116,716.5,727.696999982116,1,727.696999982116,0,0,NA,"Click Response","Text_right_X2",3,"object-19",NA,1,"That was satisfactory.","You said all the right things.","Task",NA,NA,NA,"SUPPRF16300"
"129",129,1692005750978,"14/08/2023 09:35:50",1692009350978,1,"14/08/2023 11:35:50",140743,17,"task-5vg1",NA,31172407,NA,"complete",NA,"64d9ff71624435bf2a23761d","computer","Desktop or Laptop","Windows 10","Chrome 115.0.0.0","1536x864","1536x707",NA,NA,0,"Feedback Phrases Task - List 2 (Clone with new randomisation)",4,"CDBEAFJGIH",NA,"study_2 (video_feedback and feedback_list_2)","Feedback_ranking_L2_first","Feedback Phrases List 2",63,"Task","Screen 3","izqege",2,"continue","",1766.82199999999,1766.82199999999,1766.82199999999,1766.82199999999,1766.82199999999,1766.82199999999,1,1766.82199999999,0,0,NA,"Fixation Timing","Fixation Cross",1,"object-48",NA,1,"That was satisfactory.","You said all the right things.","Task",NA,NA,NA,"SUPPRF16300"
"130",130,1692005751836,"14/08/2023 09:35:51",1692009351836,1,"14/08/2023 11:35:51",140743,17,"task-5vg1",NA,31172407,NA,"complete",NA,"64d9ff71624435bf2a23761d","computer","Desktop or Laptop","Windows 10","Chrome 115.0.0.0","1536x864","1536x707",NA,NA,0,"Feedback Phrases Task - List 2 (Clone with new randomisation)",4,"CDBEAFJGIH",NA,"study_2 (video_feedback and feedback_list_2)","Feedback_ranking_L2_first","Feedback Phrases List 2",64,"Task","Screen 1","113qg5",1,"response","I could easily picture what you were describing.",858.975000005972,850.080000000016,858.975000005972,858.975000005972,850.080000000016,858.975000005972,1,858.975000005972,0,0,NA,"Click Response","Text_right_X2",3,"object-19",NA,1,"That was perfect.","I could easily picture what you were describing.","Task",NA,NA,NA,"SUPPRF16300"
"131",131,1692005753595,"14/08/2023 09:35:53",1692009353595,1,"14/08/2023 11:35:53",140743,17,"task-5vg1",NA,31172407,NA,"complete",NA,"64d9ff71624435bf2a23761d","computer","Desktop or Laptop","Windows 10","Chrome 115.0.0.0","1536x864","1536x707",NA,NA,0,"Feedback Phrases Task - List 2 (Clone with new randomisation)",4,"CDBEAFJGIH",NA,"study_2 (video_feedback and feedback_list_2)","Feedback_ranking_L2_first","Feedback Phrases List 2",64,"Task","Screen 3","izqege",2,"continue","",1766.62299999999,1766.62299999999,1766.62299999999,1766.62299999999,1766.62299999999,1766.62299999999,1,1766.62299999999,0,0,NA,"Fixation Timing","Fixation Cross",1,"object-48",NA,1,"That was perfect.","I could easily picture what you were describing.","Task",NA,NA,NA,"SUPPRF16300"
"132",132,1692005754824,"14/08/2023 09:35:54",1692009354824,1,"14/08/2023 11:35:54",140743,17,"task-5vg1",NA,31172407,NA,"complete",NA,"64d9ff71624435bf2a23761d","computer","Desktop or Laptop","Windows 10","Chrome 115.0.0.0","1536x864","1536x707",NA,NA,0,"Feedback Phrases Task - List 2 (Clone with new randomisation)",4,"CDBEAFJGIH",NA,"study_2 (video_feedback and feedback_list_2)","Feedback_ranking_L2_first","Feedback Phrases List 2",65,"Task","Screen 1","113qg5",1,"response","You're very articulate.",1230.372,1216.60699999999,1230.372,1230.372,1216.60699999999,1230.372,1,1230.372,0,0,NA,"Click Response","Text_left_X1",2,"object-18",NA,1,"You're very articulate.","That was perfect.","Task",NA,NA,NA,"SUPPRF16300"
"133",133,1692005756578,"14/08/2023 09:35:56",1692009356578,1,"14/08/2023 11:35:56",140743,17,"task-5vg1",NA,31172407,NA,"complete",NA,"64d9ff71624435bf2a23761d","computer","Desktop or Laptop","Windows 10","Chrome 115.0.0.0","1536x864","1536x707",NA,NA,0,"Feedback Phrases Task - List 2 (Clone with new randomisation)",4,"CDBEAFJGIH",NA,"study_2 (video_feedback and feedback_list_2)","Feedback_ranking_L2_first","Feedback Phrases List 2",65,"Task","Screen 3","izqege",2,"continue","",1766.66700000002,1766.66700000002,1766.66700000002,1766.66700000002,1766.66700000002,1766.66700000002,1,1766.66700000002,0,0,NA,"Fixation Timing","Fixation Cross",1,"object-48",NA,1,"You're very articulate.","That was perfect.","Task",NA,NA,NA,"SUPPRF16300"
